"Time (s)","Acceleration x (m/s^2)","Acceleration y (m/s^2)","Acceleration z (m/s^2)","Absolute acceleration (m/s^2)"
3.143749200E-4,6.824608154E0,6.088289337E0,-3.774700470E0,9.893983381E0
1.033137506E-2,6.888974304E0,6.168223114E0,-3.619173889E0,9.929922607E0
2.034837520E-2,6.829098816E0,6.203399963E0,-3.521726532E0,9.875288325E0
3.036537487E-2,6.805597687E0,6.243366852E0,-3.565435638E0,9.899905091E0
4.038237501E-2,6.833290100E0,6.256689148E0,-3.701203308E0,9.976919295E0
5.039837491E-2,6.877298584E0,6.245312805E0,-3.809727631E0,1.004067689E1
6.041537505E-2,6.758445740E0,6.203998718E0,-3.707939301E0,9.895200997E0
7.043237519E-2,6.586902466E0,6.086343384E0,-3.693419495E0,9.699082815E0
8.044937486E-2,6.244564362E0,5.962550812E0,-3.745960236E0,9.411631864E0
9.046637500E-2,5.917195129E0,5.872438202E0,-3.738475800E0,9.136461566E0
1.004833751E-1,5.744304657E0,5.899831238E0,-3.813619537E0,9.074620576E0
1.104993750E-1,5.549110565E0,5.932762756E0,-3.779789886E0,8.959749638E0
1.205163752E-1,5.541925507E0,5.856571198E0,-3.598666534E0,8.829652617E0
1.305333748E-1,6.006708984E0,5.851781158E0,-3.940555573E0,9.265628622E0
1.405503750E-1,6.488407288E0,5.849685516E0,-4.262236633E0,9.720334916E0
1.505673751E-1,6.793622589E0,5.830974426E0,-4.269870758E0,9.918939809E0
1.605843753E-1,6.841822357E0,5.783223724E0,-3.809577942E0,9.734941906E0
1.706013749E-1,6.482419739E0,5.789510651E0,-3.434008942E0,9.345192168E0
1.806173748E-1,6.006708984E0,5.731431427E0,-3.837270355E0,9.146283552E0
1.906343750E-1,5.788762207E0,5.618416443E0,-4.409680023E0,9.193565637E0
2.006513751E-1,5.939498749E0,5.625601501E0,-4.626728668E0,9.398492209E0
2.106683752E-1,6.272406464E0,5.741460571E0,-4.289779358E0,9.524161867E0
2.206853749E-1,6.640041962E0,6.017636261E0,-4.421355743E0,9.992521705E0
2.307023751E-1,7.190896454E0,6.228248291E0,-5.203030243E0,1.084304350E1
2.407183750E-1,7.400161285E0,6.187383270E0,-5.186265106E0,1.095186945E1
2.507353751E-1,6.900051270E0,6.148314514E0,-5.240602112E0,1.062433007E1
2.607523752E-1,6.529272308E0,6.018085327E0,-5.233117676E0,1.030700095E1
2.707693749E-1,6.514303436E0,5.870192871E0,-5.081782379E0,1.013507897E1
2.807863750E-1,6.680457916E0,5.779930573E0,-4.975054321E0,1.013840623E1
2.908033752E-1,6.884184265E0,5.751639404E0,-4.853207703E0,1.019936144E1
3.008203749E-1,6.877747650E0,5.859864349E0,-4.735702057E0,1.020138701E1
3.108363752E-1,6.631060638E0,5.980812836E0,-4.662504272E0,1.007372987E1
3.208533749E-1,6.061045990E0,5.929170227E0,-4.573140106E0,9.633532504E0
3.308703750E-1,5.465584259E0,5.729036407E0,-4.638554077E0,9.176636278E0
3.408873752E-1,5.373675385E0,5.528004456E0,-4.853357391E0,9.109901117E0
3.509043748E-1,5.789360962E0,5.470074921E0,-5.157075806E0,9.488616909E0
3.609213750E-1,6.131998444E0,5.560337219E0,-5.335953827E0,9.848408914E0
3.709373749E-1,6.111191711E0,5.770350494E0,-5.399870911E0,9.990105846E0
3.809543750E-1,5.999074860E0,5.953719177E0,-5.318739624E0,9.986223631E0
3.909713752E-1,6.062991943E0,5.945635986E0,-5.134323120E0,9.923292422E0
4.009883748E-1,6.523434448E0,5.915698242E0,-5.286107483E0,1.027100847E1
4.110053750E-1,6.931934967E0,5.841003571E0,-5.219346313E0,1.045995320E1
4.210223751E-1,6.773863678E0,5.760770416E0,-5.003794556E0,1.020341437E1
4.310383750E-1,6.303092651E0,5.622757416E0,-4.582570496E0,9.609595739E0
4.410553752E-1,5.952222290E0,5.415139160E0,-4.183650055E0,9.069487863E0
4.510723748E-1,6.116281128E0,5.311853943E0,-4.244723053E0,9.145619768E0
4.610893750E-1,6.634204102E0,5.349126434E0,-4.674030304E0,9.719690168E0
4.711063751E-1,6.866221619E0,5.464237061E0,-4.970114594E0,1.008488597E1
4.811233752E-1,6.924300842E0,5.553750916E0,-5.104684753E0,1.023952625E1
4.911403749E-1,7.129524078E0,5.578599243E0,-5.171296234E0,1.042560252E1
5.011563753E-1,7.375462646E0,5.554349670E0,-5.058730316E0,1.052801035E1
5.111733750E-1,7.378306732E0,5.557044067E0,-4.938829651E0,1.047435856E1
5.211903751E-1,7.115902405E0,5.546565857E0,-5.092859344E0,1.036038977E1
5.312073752E-1,6.680757294E0,5.522765350E0,-5.253325653E0,1.013562458E1
5.412243749E-1,6.285429382E0,5.387596436E0,-5.205724640E0,9.779181300E0
5.512413750E-1,6.055357819E0,5.197042694E0,-5.010829926E0,9.422580730E0
5.612573749E-1,6.030210114E0,5.032235413E0,-4.916076965E0,9.265777894E0
5.712743751E-1,6.228996735E0,5.006938019E0,-4.971312103E0,9.411895275E0
5.812913752E-1,6.494245148E0,5.068160706E0,-5.106331329E0,9.692063383E0
5.913083749E-1,6.684649200E0,5.204078064E0,-5.201383667E0,9.940893093E0
6.013253750E-1,6.694229279E0,5.325475616E0,-5.153183899E0,9.986425811E0
6.113423752E-1,6.668033752E0,5.360951843E0,-5.086273041E0,9.953524614E0
6.213593748E-1,6.651717682E0,5.391039276E0,-5.035678253E0,9.933111701E0
6.313753752E-1,6.743476868E0,5.396128693E0,-5.027295685E0,9.993317119E0
6.413923749E-1,6.733298035E0,5.411995697E0,-5.026397552E0,9.994582143E0
6.514093750E-1,6.654112701E0,5.439688110E0,-5.017266541E0,9.951903643E0
6.614263752E-1,6.611601105E0,5.428461456E0,-5.056335297E0,9.937202302E0
6.714433748E-1,6.574178925E0,5.369783478E0,-5.021158447E0,9.862374728E0
6.814603750E-1,6.589147797E0,5.273833008E0,-5.056784363E0,9.838762695E0
6.914763749E-1,6.778204651E0,5.165158997E0,-5.021008759E0,9.891079552E0
7.014933750E-1,6.940167847E0,5.162763977E0,-4.834197235E0,9.909062747E0
7.115103751E-1,6.993157654E0,5.269342346E0,-4.678970032E0,9.927889166E0
7.215273753E-1,6.963070221E0,5.400918732E0,-4.642146606E0,9.960110198E0
7.315443750E-1,6.878047028E0,5.457351379E0,-4.728067932E0,9.972203436E0
7.415613751E-1,6.655609589E0,5.417085114E0,-4.772525482E0,9.819315129E0
7.515773750E-1,6.461912384E0,5.360353088E0,-4.806355133E0,9.674231058E0
7.615943751E-1,6.441105652E0,5.343887329E0,-4.905598755E0,9.701024325E0
7.716113753E-1,6.478527832E0,5.342989197E0,-4.943470001E0,9.744575521E0
7.816283749E-1,6.432124329E0,5.366789703E0,-4.940775604E0,9.725529223E0
7.916453751E-1,6.325246582E0,5.368885345E0,-5.026098175E0,9.700275101E0
8.016623752E-1,6.302643585E0,5.319338379E0,-5.049449615E0,9.670347376E0
8.116793749E-1,6.338119812E0,5.293891296E0,-5.004842377E0,9.656370696E0
8.216953753E-1,6.446943512E0,5.295388184E0,-4.962480469E0,9.707235913E0
8.317123749E-1,6.613547058E0,5.317093048E0,-5.035079498E0,9.867244232E0
8.417293751E-1,6.718778229E0,5.310506744E0,-4.981640625E0,9.907583262E0
8.517457498E-1,6.651867371E0,5.379213867E0,-4.822820892E0,9.820533728E0
8.617627500E-1,6.579418030E0,5.476511536E0,-4.961732025E0,9.894427972E0
8.717797501E-1,6.612050171E0,5.398972778E0,-4.933291168E0,9.859283761E0
8.817957500E-1,6.440955963E0,5.327271881E0,-4.761448517E0,9.619622206E0
8.918127501E-1,6.362519073E0,5.378615112E0,-4.851261749E0,9.640844882E0
9.018297503E-1,6.496490479E0,5.411546631E0,-4.993466034E0,9.819568652E0
9.118467500E-1,6.529571686E0,5.421875153E0,-5.015021210E0,9.858117178E0
9.218637501E-1,6.343957672E0,5.444328461E0,-5.077890472E0,9.781180040E0
9.318807502E-1,6.166875916E0,5.446573792E0,-5.076094208E0,9.667587963E0
9.418977499E-1,6.252348175E0,5.341791687E0,-5.079237671E0,9.665673874E0
9.519137503E-1,6.468348999E0,5.244943085E0,-4.835095367E0,9.629491884E0
9.619307499E-1,6.452781372E0,5.260510712E0,-4.854255524E0,9.637175783E0
9.719477501E-1,6.428831177E0,5.289400635E0,-5.012925568E0,9.717872819E0
9.819647502E-1,6.362219696E0,5.278772736E0,-5.095553741E0,9.711227986E0
9.919817499E-1,6.300248566E0,5.274581451E0,-5.133574677E0,9.688546353E0
1.001998750E0,6.321654053E0,5.260959778E0,-5.244943085E0,9.754508481E0
1.012014750E0,6.426436157E0,5.257067871E0,-5.242098999E0,9.819136734E0
1.022031750E0,6.458170166E0,5.288801880E0,-5.281167755E0,9.877758859E0
1.032048750E0,6.358477478E0,5.367987213E0,-5.395380249E0,9.917441736E0
1.042065750E0,6.206094360E0,5.372028809E0,-5.235812073E0,9.735914379E0
1.052082750E0,6.074517975E0,5.383105774E0,-5.235812073E0,9.658743420E0
1.062099750E0,6.023324432E0,5.340594177E0,-5.389991455E0,9.687847608E0
1.072116750E0,6.154751129E0,5.253175964E0,-5.594765625E0,9.837592265E0
1.082132750E0,6.410718842E0,5.182223511E0,-5.528902588E0,9.925800744E0
1.092149750E0,6.558760986E0,5.177882538E0,-5.367837524E0,9.931842374E0
1.102166750E0,6.617888031E0,5.173990631E0,-5.141957245E0,9.849179933E0
1.112183750E0,6.422544250E0,5.254373474E0,-5.228477325E0,9.807878996E0
1.122200750E0,6.115981750E0,5.280718689E0,-5.494474182E0,9.771410808E0
1.132217750E0,5.893244934E0,5.282664642E0,-5.660029907E0,9.729995896E0
1.142233750E0,5.755082245E0,5.295837250E0,-5.653593292E0,9.650387605E0
1.152250750E0,5.663023682E0,5.333858185E0,-5.567821655E0,9.566635686E0
1.162267750E0,5.654042358E0,5.338648224E0,-5.493875427E0,9.521135807E0
1.172284750E0,5.842650146E0,5.272036743E0,-5.481002197E0,9.590219875E0
1.182301750E0,6.175557861E0,5.160219269E0,-5.487887878E0,9.740754137E0
1.192318750E0,6.436614990E0,5.097200317E0,-5.374124451E0,9.812883227E0
1.202334750E0,6.623576202E0,5.058580627E0,-5.218597870E0,9.833349551E0
1.212351750E0,6.785090332E0,4.994513855E0,-5.019661560E0,9.807120966E0
1.222368750E0,6.812183990E0,5.023403778E0,-5.080884247E0,9.871971483E0
1.232385750E0,6.818171539E0,5.157674561E0,-5.275329895E0,1.004580388E1
1.242402750E0,6.762487335E0,5.324278107E0,-5.463638306E0,1.019463172E1
1.252419750E0,6.591542816E0,5.399272156E0,-5.203479309E0,9.983825591E0
1.262436750E0,6.046226807E0,5.304070129E0,-4.573439484E0,9.252370899E0
1.272452750E0,5.592220917E0,5.098098450E0,-4.172273712E0,8.641262090E0
1.282469750E0,5.860313416E0,4.838987274E0,-4.130360870E0,8.649794916E0
1.292486750E0,6.426585846E0,4.641847229E0,-4.427043915E0,9.080003808E0
1.302503750E0,6.741680603E0,4.680317230E0,-4.730163574E0,9.472595957E0
1.312520750E0,6.858737183E0,4.875511322E0,-4.827910309E0,9.701628953E0
1.322537750E0,6.979535980E0,5.095404053E0,-4.661157074E0,9.818525868E0
1.332553750E0,7.088359680E0,5.267995148E0,-4.598437500E0,9.957019799E0
1.342570750E0,7.259154510E0,5.325325928E0,-4.840633850E0,1.022184702E1
1.352587750E0,7.463329926E0,5.300477600E0,-5.023852844E0,1.044200430E1
1.362604750E0,7.488178253E0,5.248984680E0,-4.790937195E0,1.032364921E1
1.372621750E0,7.063062286E0,5.147046661E0,-4.398603058E0,9.783999543E0
1.382638750E0,6.534062347E0,4.981640625E0,-4.124822388E0,9.193741013E0
1.392655750E0,6.340814209E0,4.860692139E0,-4.035757599E0,8.950954826E0
1.402671750E0,6.411467285E0,4.796026611E0,-4.089495850E0,8.990704105E0
1.412688750E0,6.690487061E0,4.824617157E0,-4.204307098E0,9.258279862E0
1.422705750E0,7.120692444E0,4.891528015E0,-4.351301422E0,9.672907074E0
1.432722750E0,7.523055725E0,5.059329071E0,-4.396657104E0,1.007590054E1
1.442739750E0,7.746840363E0,5.222489777E0,-4.461921387E0,1.035358284E1
1.452756750E0,7.783963165E0,5.329666901E0,-4.583169250E0,1.048813006E1
1.462772750E0,7.618706818E0,5.373825073E0,-4.644541626E0,1.041606722E1
1.472789750E0,7.311395874E0,5.338648224E0,-4.642745361E0,1.017412202E1
1.482806750E0,7.024891663E0,5.250631256E0,-4.747826843E0,9.972968023E0
1.492823750E0,7.024292908E0,5.135820007E0,-4.862787781E0,9.968151434E0
1.502840750E0,7.301815796E0,5.108576660E0,-4.890929260E0,1.016539514E1
1.512857750E0,7.572153625E0,5.150040436E0,-4.745431824E0,1.031404626E1
1.522873750E0,7.646997986E0,5.249733124E0,-4.549040222E0,1.033102333E1
1.532890750E0,7.719746704E0,5.323230286E0,-4.458927612E0,1.038331861E1
1.542907750E0,7.810009003E0,5.362448730E0,-4.465513916E0,1.047343838E1
1.552924750E0,7.788004761E0,5.395380249E0,-4.340972900E0,1.042147743E1
1.562941750E0,7.622149658E0,5.396877136E0,-4.246818695E0,1.025957686E1
1.572958750E0,7.460336151E0,5.351970520E0,-4.232897644E0,1.011027331E1
1.582975750E0,7.401508484E0,5.297633514E0,-4.301904144E0,1.006745390E1
1.592991750E0,7.435038757E0,5.285059662E0,-4.560416565E0,1.019848303E1
1.603008750E0,7.499255219E0,5.258265381E0,-4.690795441E0,1.029037150E1
1.613025750E0,7.505242767E0,5.215155029E0,-4.621489563E0,1.024132202E1
1.623042750E0,7.525151367E0,5.202132111E0,-4.350552979E0,1.013002432E1
1.633059750E0,7.538773041E0,5.232818298E0,-4.175267487E0,1.008208038E1
1.643076750E0,7.497758331E0,5.249583435E0,-4.081412659E0,1.002159845E1
1.653092750E0,7.351512451E0,5.224435730E0,-4.020040283E0,9.874218343E0
1.663109750E0,7.111112366E0,5.189258881E0,-4.026626587E0,9.680395058E0
1.673126750E0,6.901548157E0,5.126988373E0,-4.174219666E0,9.557274013E0
1.683143750E0,6.886429596E0,5.104085999E0,-4.462220764E0,9.663644272E0
1.693160750E0,7.066355438E0,5.138664093E0,-4.764442291E0,9.951841949E0
1.703177750E0,7.245532837E0,5.199587402E0,-4.923561401E0,1.018699721E1
1.713193750E0,7.188950500E0,5.225483551E0,-4.803211670E0,1.010235270E1
1.723210750E0,6.914720764E0,5.224435730E0,-4.506528625E0,9.768157052E0
1.733227750E0,6.718927917E0,5.268743591E0,-4.175866241E0,9.504815109E0
1.743244750E0,6.840175781E0,5.296885071E0,-4.102219391E0,9.574612269E0
1.753261750E0,7.053332520E0,5.217250671E0,-3.867806854E0,9.587968193E0
1.763278750E0,6.922354889E0,5.153483276E0,-3.807781677E0,9.432740238E0
1.773294750E0,6.701114960E0,5.091811523E0,-4.173171844E0,9.393979430E0
1.783311750E0,6.620283051E0,5.124144287E0,-4.574636993E0,9.540037000E0
1.793328750E0,6.545438690E0,5.237608337E0,-5.015170898E0,9.768687112E0
1.803345750E0,6.548282776E0,5.308860168E0,-5.321434021E0,9.969035241E0
1.813362750E0,6.574328613E0,5.249134369E0,-5.422024841E0,1.000867432E1
1.823379750E0,6.486311646E0,5.166506195E0,-5.034630432E0,9.701161199E0
1.833396750E0,6.353088684E0,5.159021759E0,-4.788242798E0,9.481798903E0
1.843412750E0,6.309828644E0,5.197042694E0,-4.970713348E0,9.567192978E0
1.853429917E0,6.329587555E0,5.200335846E0,-4.919669495E0,9.555643331E0
1.863446917E0,6.318061523E0,5.250032501E0,-4.945715332E0,9.588578770E0
1.873463917E0,6.251150665E0,5.305716705E0,-5.137017517E0,9.675560106E0
1.883480917E0,6.194718018E0,5.299429779E0,-5.149291992E0,9.642286830E0
1.893497917E0,6.179449768E0,5.258564758E0,-5.396727448E0,9.744884294E0
1.903513917E0,6.234984283E0,5.188360748E0,-5.555098114E0,9.831237528E0
1.913530917E0,6.315816193E0,5.193001099E0,-5.565426636E0,9.890943748E0
1.923547917E0,6.224206696E0,5.285658417E0,-5.627996521E0,9.917322155E0
1.933564917E0,6.067183228E0,5.285808105E0,-5.544619904E0,9.772066799E0
1.943581917E0,6.022426300E0,5.288352814E0,-5.372477875E0,9.648824412E0
1.953598917E0,6.016887817E0,5.271288300E0,-5.321733398E0,9.607823151E0
1.963614917E0,6.136788483E0,5.246589661E0,-5.437143402E0,9.733930569E0
1.973631917E0,6.371799774E0,5.218747559E0,-5.616620178E0,9.969031080E0
1.983648917E0,6.416856079E0,5.192552032E0,-5.597160645E0,9.973306665E0
1.993665917E0,6.258485413E0,5.173541565E0,-5.492977295E0,9.803416320E0
2.003682917E0,6.061045990E0,5.066214752E0,-5.309758301E0,9.518211157E0
2.013699917E0,5.949527893E0,5.007985840E0,-5.319488068E0,9.421982680E0
2.023716917E0,5.932762756E0,4.997208252E0,-5.396577759E0,9.449487592E0
2.033732917E0,5.907315674E0,5.012626190E0,-5.442083130E0,9.467791114E0
2.043749917E0,5.946384430E0,5.050497437E0,-5.416935425E0,9.497905113E0
2.053766917E0,6.080804901E0,5.090464325E0,-5.514532471E0,9.659145079E0
2.063783917E0,6.203100586E0,5.097200317E0,-5.644462280E0,9.814268306E0
2.073800917E0,6.130950623E0,5.117557983E0,-5.646557922E0,9.780673373E0
2.083817917E0,6.053711243E0,5.158872070E0,-5.562732239E0,9.705945127E0
2.093833917E0,6.140979767E0,5.204377441E0,-5.509892120E0,9.754798216E0
2.103850916E0,6.158193970E0,5.234464874E0,-5.500761108E0,9.776571396E0
2.113867917E0,5.966143341E0,5.271288300E0,-5.455255737E0,9.650966887E0
2.123884917E0,5.786965942E0,5.210514679E0,-5.417983246E0,9.486463013E0
2.133901917E0,5.864205322E0,5.124743042E0,-5.510041809E0,9.540044866E0
2.143918917E0,6.230044556E0,5.034480743E0,-5.768254852E0,9.870775834E0
2.153934917E0,6.317462769E0,4.995262299E0,-5.771398315E0,9.908179438E0
2.163951917E0,6.135590973E0,5.059329071E0,-5.641618195E0,9.750391945E0
2.173968917E0,6.168672180E0,5.132227478E0,-5.513035583E0,9.735801800E0
2.183985917E0,6.472989349E0,5.140310669E0,-5.423970795E0,9.886447495E0
2.194002917E0,6.606062622E0,5.123695221E0,-5.363496552E0,9.932744401E0
2.204019917E0,6.521189117E0,5.010680237E0,-5.473068695E0,9.878628694E0
2.214036917E0,6.448290710E0,4.887486420E0,-5.517675934E0,9.793504189E0
2.224052917E0,6.268364868E0,4.856500854E0,-5.272186432E0,9.522286933E0
2.234069917E0,6.265371094E0,4.963378601E0,-5.278922424E0,9.578988675E0
2.244086917E0,6.389163666E0,5.095254364E0,-5.439688110E0,9.816987120E0
2.254103917E0,6.421346741E0,5.127437439E0,-5.486091614E0,9.880359804E0
2.264120917E0,6.300547943E0,5.081932068E0,-5.485193481E0,9.778051209E0
2.274137917E0,6.151008911E0,5.002597046E0,-5.571563873E0,9.690366960E0
2.284153917E0,6.186934204E0,4.940176849E0,-5.629643097E0,9.714750823E0
2.294170917E0,6.350094910E0,4.921316071E0,-5.745352478E0,9.876848299E0
2.304187917E0,6.505471802E0,4.941074982E0,-5.681884460E0,9.950838978E0
2.314204917E0,6.575077057E0,4.980443115E0,-5.502407684E0,9.915288309E0
2.324221916E0,6.469995575E0,5.005141754E0,-5.626948700E0,9.928486208E0
2.334238917E0,6.481970673E0,5.056934052E0,-5.847140808E0,1.008848757E1
2.344254917E0,6.602470093E0,5.095104675E0,-5.757926331E0,1.013441753E1
2.354271917E0,6.750961304E0,5.158722382E0,-5.513933716E0,1.012873932E1
2.364288917E0,6.735543365E0,5.225333862E0,-5.603148193E0,1.020131992E1
2.374305917E0,6.503226471E0,5.161267090E0,-5.834117889E0,1.014729343E1
2.384322917E0,6.307583313E0,5.013224945E0,-5.814508667E0,9.936123119E0
2.394339917E0,6.198310547E0,4.871769104E0,-5.461842041E0,9.590876202E0
2.404355917E0,6.100414124E0,4.810247040E0,-5.176086273E0,9.335169959E0
2.414372917E0,6.149961090E0,4.787344666E0,-5.112468567E0,9.320838224E0
2.424389917E0,6.446644135E0,4.852908325E0,-5.329367523E0,9.670165356E0
2.434406917E0,6.742728424E0,4.923411713E0,-5.590274963E0,1.004766359E1
2.444423917E0,6.869514771E0,4.959935760E0,-5.719306641E0,1.022260556E1
2.454440917E0,6.882986755E0,5.032385101E0,-5.722599792E0,1.026881468E1
2.464457917E0,6.870263214E0,5.106481018E0,-5.595514069E0,1.022675133E1
2.474473917E0,6.828500061E0,5.147196350E0,-5.475314026E0,1.015387153E1
2.484490917E0,6.740932159E0,5.140759735E0,-5.287903748E0,9.991471517E0
2.494507917E0,6.653064880E0,5.071004791E0,-5.169799347E0,9.833879559E0
2.504524917E0,6.474336548E0,4.978646851E0,-4.971312103E0,9.561270952E0
2.514541917E0,6.196065216E0,4.914280701E0,-4.894521790E0,9.300415180E0
2.524558917E0,6.216123505E0,4.908742218E0,-5.174888763E0,9.461258653E0
2.534574917E0,6.471791840E0,4.920567627E0,-5.599855042E0,9.871902141E0
2.544591917E0,6.655908966E0,4.944966888E0,-5.803431702E0,1.012095061E1
2.554608917E0,6.728657684E0,5.014123077E0,-5.945935364E0,1.028447431E1
2.564625917E0,6.822362823E0,5.055586853E0,-6.031856689E0,1.041570392E1
2.574642917E0,6.847360840E0,5.042563934E0,-5.938750305E0,1.037220115E1
2.584659917E0,6.703509979E0,5.014123077E0,-5.580694885E0,1.006094586E1
2.594675917E0,6.493347015E0,4.986879730E0,-5.163961487E0,9.679825574E0
2.604692917E0,6.343059540E0,4.998405762E0,-4.992867279E0,9.494587308E0
2.614709917E0,6.274352417E0,4.972060547E0,-4.845274200E0,9.357647483E0
2.624726917E0,6.139782257E0,4.927004242E0,-4.800517273E0,9.220480630E0
2.634743917E0,6.128854980E0,4.933740234E0,-5.105433197E0,9.379237933E0
2.644760917E0,6.281537476E0,4.937033386E0,-5.443430328E0,9.667623568E0
2.654776917E0,6.415508881E0,5.016667786E0,-5.647156677E0,9.910403040E0
2.664793917E0,6.457272034E0,5.170697479E0,-5.794749756E0,1.010007917E1
2.674810917E0,6.411317596E0,5.372028809E0,-5.811365204E0,1.018507007E1
2.684827917E0,6.344257050E0,5.471571808E0,-5.594915314E0,1.007426290E1
2.694844917E0,6.327192535E0,5.423072662E0,-5.159470825E0,9.801184708E0
2.704861917E0,6.283633118E0,5.269042969E0,-4.690496063E0,9.447095442E0
2.714877916E0,6.077062683E0,5.148693237E0,-4.660558319E0,9.228246678E0
2.724894917E0,5.944288788E0,5.043761444E0,-4.983586578E0,9.252579850E0
2.734911917E0,6.063141632E0,5.002147980E0,-5.122198334E0,9.381902080E0
2.744928917E0,6.313870239E0,5.116510162E0,-5.461692352E0,9.791512498E0
2.754945917E0,6.570137329E0,5.194348297E0,-5.623505859E0,1.008819988E1
2.764962917E0,6.443800049E0,5.311105499E0,-5.923332367E0,1.023798159E1
2.774979917E0,6.180946655E0,5.323679352E0,-5.985004120E0,1.011760533E1
2.784995917E0,6.102659454E0,5.270090790E0,-5.806724854E0,9.936516637E0
2.795012917E0,6.100863190E0,5.252277832E0,-5.736371155E0,9.884983971E0
2.805029917E0,6.203998718E0,5.144501953E0,-5.591622162E0,9.809268007E0
2.815046917E0,6.220165100E0,5.040019226E0,-5.246739349E0,9.571860920E0
2.825063917E0,6.107898560E0,4.993615723E0,-5.062771912E0,9.374128345E0
2.835080917E0,5.993237000E0,5.021457825E0,-5.341043243E0,9.468931901E0
2.845096917E0,6.002368011E0,4.982239380E0,-5.772446136E0,9.704239557E0
2.855113625E0,6.109096069E0,4.953798523E0,-6.115832062E0,9.963160964E0
2.865130625E0,6.252048798E0,4.964875488E0,-6.262676697E0,1.014688239E1
2.875147625E0,6.362070007E0,5.004243622E0,-6.264922028E0,1.023560633E1
2.885164625E0,6.508465576E0,5.004542999E0,-6.126759338E0,1.024415710E1
2.895181625E0,6.550977173E0,4.962929535E0,-5.833519135E0,1.007848783E1
2.905197625E0,6.240971832E0,4.972060547E0,-5.503754883E0,9.693422167E0
2.915214625E0,5.917045441E0,4.948559418E0,-5.451513519E0,9.445563335E0
2.925231625E0,5.839356995E0,4.869074707E0,-5.423521729E0,9.339195177E0
2.935248625E0,5.677693176E0,4.846322021E0,-5.342240753E0,9.179464756E0
2.945265625E0,5.578150177E0,4.871918793E0,-5.361400909E0,9.143083278E0
2.955282625E0,5.741759949E0,4.965174866E0,-5.648054810E0,9.461569209E0
2.965298625E0,5.866600342E0,5.065915375E0,-5.750890961E0,9.651592874E0
2.975315625E0,5.933062134E0,5.147346039E0,-5.815706177E0,9.773373822E0
2.985332625E0,6.174809418E0,5.182672577E0,-5.943390656E0,1.001560077E1
2.995349625E0,6.386768646E0,5.102289734E0,-5.874982910E0,1.006675710E1
3.005366625E0,6.379733276E0,5.060376892E0,-5.745951233E0,9.966161073E0
3.015383625E0,6.256090393E0,5.100044403E0,-5.829776917E0,9.956677097E0
3.025399625E0,6.041137390E0,5.121150513E0,-5.954317932E0,9.908351305E0
3.035416625E0,5.868246918E0,5.087021484E0,-5.968238983E0,9.794589631E0
3.045433625E0,5.775888977E0,5.012027435E0,-5.984255676E0,9.710439150E0
3.055450625E0,5.896987152E0,4.944517822E0,-5.982010345E0,9.747161727E0
3.065467625E0,6.208938446E0,4.852459259E0,-5.798491974E0,9.783648944E0
3.075484625E0,6.380781097E0,4.799619141E0,-5.670358429E0,9.793042225E0
3.085500625E0,6.425687714E0,4.759502563E0,-5.632487183E0,9.780963097E0
3.095517625E0,6.459517365E0,4.771477661E0,-5.511089630E0,9.739839453E0
3.105534625E0,6.372847595E0,4.762795715E0,-5.181175690E0,9.494313615E0
3.115551625E0,6.300098877E0,4.572691040E0,-4.491559753E0,8.987483420E0
3.125568625E0,6.500681763E0,4.472249908E0,-4.304897919E0,8.988438614E0
3.135585625E0,6.706204376E0,4.659061432E0,-4.779111786E0,9.461497769E0
3.145602625E0,6.490951996E0,4.954846344E0,-5.541177063E0,9.868515762E0
3.155618625E0,6.325246582E0,5.172793121E0,-6.134692841E0,1.021768023E1
3.165635625E0,6.392905884E0,5.215753784E0,-6.643933868E0,1.059316716E1
3.175652625E0,6.515950012E0,5.178032227E0,-6.701414337E0,1.068543759E1
3.185669625E0,6.609206085E0,5.160967712E0,-6.529122620E0,1.062763544E1
3.195686625E0,6.699618073E0,5.225633240E0,-6.280938721E0,1.056609276E1
3.205703625E0,6.722670135E0,5.206323395E0,-5.902076569E0,1.035058476E1
3.215719625E0,6.687193909E0,5.132077789E0,-5.450615387E0,1.003822658E1
3.225736625E0,6.303392029E0,5.207969971E0,-5.460195465E0,9.832061676E0
3.235753625E0,5.543422394E0,5.157075806E0,-5.458848267E0,9.334023093E0
3.245770625E0,5.105283508E0,4.998854828E0,-5.687273254E0,9.132225707E0
3.255787625E0,5.384752350E0,4.906347198E0,-6.029461670E0,9.456331674E0
3.265804625E0,5.951623535E0,4.902006226E0,-6.257587280E0,9.930200719E0
3.275820625E0,6.352489929E0,4.983287201E0,-6.302044830E0,1.024221893E1
3.285837625E0,6.508764954E0,5.017565918E0,-6.221063232E0,1.030735741E1
3.295854625E0,6.626120911E0,4.952451324E0,-5.924080811E0,1.017482117E1
3.305871625E0,6.683152313E0,4.871170349E0,-5.482648773E0,9.922311373E0
3.315888625E0,6.662345581E0,4.818180542E0,-4.992567902E0,9.619118807E0
3.325905625E0,6.711593170E0,4.802463226E0,-4.611161041E0,9.453673470E0
3.335921625E0,6.752607880E0,4.790338440E0,-4.404889984E0,9.378065436E0
3.345938625E0,6.761888580E0,4.878954163E0,-4.994364166E0,9.719619556E0
3.355955625E0,6.728807373E0,4.914280701E0,-5.727389832E0,1.011088511E1
3.365972625E0,6.610553284E0,4.887486420E0,-6.043831787E0,1.020366801E1
3.375989625E0,6.468199310E0,4.912634125E0,-6.128555603E0,1.017500713E1
3.386006625E0,6.440506897E0,5.017266541E0,-5.931116180E0,1.009114621E1
3.396022625E0,6.374643860E0,5.153333588E0,-5.605692902E0,9.930595365E0
3.406039625E0,6.301446075E0,5.207371216E0,-5.156027985E0,9.664862244E0
3.416056625E0,6.354286194E0,5.145699463E0,-5.012027435E0,9.590390764E0
3.426073625E0,6.600973206E0,5.018014984E0,-4.996160431E0,9.680647741E0
3.436090625E0,6.845863953E0,4.973707123E0,-5.163662109E0,9.912972419E0
3.446107625E0,6.844067688E0,5.042414246E0,-5.253026276E0,9.993072050E0
3.456123625E0,6.503226471E0,5.160368958E0,-5.320386200E0,9.860419445E0
3.466140625E0,5.841003571E0,5.185516663E0,-5.467979279E0,9.534448236E0
3.476157625E0,5.252876587E0,5.101990356E0,-6.086792450E0,9.522187793E0
3.486174625E0,5.359604645E0,4.904700623E0,-6.569538574E0,9.794911292E0
3.496191625E0,6.158493347E0,4.738546143E0,-6.705605621E0,1.026382027E1
3.506208625E0,6.931934967E0,4.762945404E0,-6.430178375E0,1.058699982E1
3.516224625E0,7.070397034E0,5.012177124E0,-5.597310333E0,1.031708858E1
3.526241625E0,6.880591736E0,5.301675110E0,-5.477709045E0,1.026915761E1
3.536258625E0,6.808292084E0,5.221891022E0,-5.068310394E0,9.965377925E0
3.546275625E0,6.571185150E0,5.073998566E0,-4.926405487E0,9.653776812E0
3.556292625E0,6.306385803E0,4.951702881E0,-5.064568176E0,9.483655104E0
3.566309625E0,6.268963623E0,4.872517548E0,-5.151687012E0,9.464735138E0
3.576325625E0,6.308032379E0,4.826263733E0,-5.212760010E0,9.500366363E0
3.586342625E0,6.171665955E0,4.906796265E0,-5.438640289E0,9.578356771E0
3.596359625E0,5.884712677E0,5.091512146E0,-5.647156677E0,9.614765611E0
3.606376625E0,5.771248627E0,5.315296783E0,-5.823939056E0,9.771282246E0
3.616393625E0,5.919440460E0,5.364095306E0,-5.874683533E0,9.915906435E0
3.626410625E0,5.973478088E0,5.266797638E0,-5.807622986E0,9.856474145E0
3.636426625E0,5.935756531E0,5.182373199E0,-5.946683807E0,9.871841058E0
3.646443625E0,5.870641937E0,5.081183624E0,-5.902825012E0,9.753266474E0
3.656460625E0,5.821993103E0,5.032684479E0,-5.669011230E0,9.558305555E0
3.666477625E0,5.884712677E0,5.132826233E0,-5.632936249E0,9.628380924E0
3.676494625E0,5.964197388E0,5.218897247E0,-5.709277496E0,9.767517007E0
3.686511625E0,5.916746063E0,5.253325653E0,-5.752986603E0,9.782748553E0
3.696527625E0,5.836363220E0,5.254822540E0,-5.939049683E0,9.846248357E0
3.706544625E0,5.689219208E0,5.226082306E0,-6.120622101E0,9.856021833E0
3.716561625E0,5.479056244E0,5.279970245E0,-6.346801758E0,9.908583939E0
3.726578625E0,5.305417328E0,5.306315460E0,-6.466552734E0,9.905591403E0
3.736595625E0,5.278323669E0,5.235063629E0,-6.427034912E0,9.827175063E0
3.746612625E0,5.401517487E0,5.123096466E0,-6.194718018E0,9.684887190E0
3.756629625E0,5.451812897E0,5.069657593E0,-5.793701935E0,9.433486846E0
3.766645625E0,5.477259979E0,5.078638916E0,-5.637726288E0,9.358253460E0
3.776662625E0,5.619164886E0,5.082680511E0,-5.747148743E0,9.509909246E0
3.786679625E0,5.712420959E0,5.089117126E0,-5.830974426E0,9.619310220E0
3.796696625E0,5.745352478E0,5.111121368E0,-5.850433960E0,9.662308951E0
3.806713625E0,5.774841156E0,5.173391876E0,-5.819598083E0,9.694353807E0
3.816730625E0,5.801934814E0,5.215155029E0,-5.943690033E0,9.807534898E0
3.826746625E0,5.779182129E0,5.185217285E0,-5.900729370E0,9.752129587E0
3.836763625E0,5.746250610E0,5.116959229E0,-5.771098938E0,9.618120959E0
3.846780625E0,5.854176178E0,5.079237671E0,-5.678441620E0,9.608055645E0
3.856798542E0,5.881419525E0,5.064867554E0,-5.494025116E0,9.509379104E0
3.866815542E0,5.706732788E0,5.175188141E0,-5.415588226E0,9.416897963E0
3.876831542E0,5.564229126E0,5.256768494E0,-5.508993988E0,9.430974262E0
3.886848542E0,5.547463989E0,5.225333862E0,-5.724845123E0,9.531648460E0
3.896865542E0,5.636678467E0,5.137316895E0,-6.019731903E0,9.716035261E0
3.906882542E0,5.813760223E0,5.062322845E0,-6.129304047E0,9.848618615E0
3.916899542E0,5.993835754E0,5.032235413E0,-5.995332642E0,9.858675052E0
3.926916542E0,6.016139374E0,5.076094208E0,-5.557942200E0,9.635942448E0
3.936933542E0,6.011798401E0,5.126090240E0,-5.073250122E0,9.389163326E0
3.946949542E0,6.218817902E0,5.088817749E0,-4.805307312E0,9.362731468E0
3.956966542E0,6.608906708E0,4.889132996E0,-4.595743103E0,9.418180503E0
3.966983542E0,6.986721039E0,4.623435516E0,-4.828059998E0,9.669570321E0
3.977000542E0,6.858886871E0,4.738546143E0,-5.422623596E0,9.944998508E0
3.987017542E0,6.588099976E0,5.121749268E0,-5.867049408E0,1.020086494E1
3.997034542E0,6.518644409E0,5.444927216E0,-6.021977234E0,1.041173219E1
4.007050542E0,6.457721100E0,5.510341187E0,-5.838758240E0,1.030325772E1
4.017067542E0,6.231541443E0,5.342689819E0,-5.612279205E0,9.943546708E0
4.027084542E0,6.110742645E0,5.015619965E0,-5.267845459E0,9.499885004E0
4.037101542E0,6.350094910E0,4.674629059E0,-4.963228912E0,9.317161769E0
4.047118542E0,6.844217377E0,4.538711700E0,-5.003345490E0,9.616479683E0
4.057135542E0,7.216792603E0,4.590054932E0,-5.101840668E0,9.958889393E0
4.067151542E0,7.162305908E0,4.780458984E0,-5.229225769E0,1.007453305E1
4.077168541E0,6.933132477E0,4.960384827E0,-5.474864960E0,1.013152949E1
4.087185542E0,6.747518463E0,5.102738800E0,-5.768404541E0,1.023921089E1
4.097202542E0,6.728657684E0,5.171146545E0,-5.859564972E0,1.031261812E1
4.107219542E0,6.778504028E0,5.202132111E0,-5.849835205E0,1.035523381E1
4.117236542E0,6.793323212E0,5.153034210E0,-5.589376831E0,1.019529966E1
4.127252542E0,6.584208069E0,5.032684479E0,-5.244344330E0,9.807285884E0
4.137269542E0,6.480174408E0,4.947062531E0,-5.184019775E0,9.661270572E0
4.147286542E0,6.593039703E0,4.901706848E0,-5.329816589E0,9.792948863E0
4.157303542E0,6.793921967E0,4.910538483E0,-5.305267639E0,9.920515541E0
4.167320542E0,6.923402710E0,4.956343231E0,-5.267546082E0,1.001228670E1
4.177337542E0,7.055428162E0,4.999303894E0,-5.331014099E0,1.015833733E1
4.187353542E0,7.104975128E0,5.066364441E0,-5.414839783E0,1.026982035E1
4.197370542E0,6.966213684E0,5.156177673E0,-5.466482391E0,1.024679126E1
4.207387542E0,6.801107025E0,5.225932617E0,-5.326074371E0,1.009616247E1
4.217404542E0,6.668782196E0,5.272934875E0,-5.161716156E0,9.945843949E0
4.227421542E0,6.429878998E0,5.218448181E0,-5.137765961E0,9.745367331E0
4.237438542E0,6.229894867E0,5.090015259E0,-5.121449890E0,9.536723461E0
4.247454542E0,6.242019653E0,4.971012726E0,-5.161716156E0,9.503530425E0
4.257471542E0,6.535259857E0,4.896318054E0,-5.146148529E0,9.652274166E0
4.267488542E0,6.812183990E0,4.919968872E0,-5.243296509E0,9.904751521E0
4.277505542E0,6.911427612E0,5.006189575E0,-5.403164062E0,1.010069045E1
4.287522542E0,6.870113525E0,5.075944519E0,-5.361251221E0,1.008497334E1
4.297539541E0,6.862479401E0,5.113965454E0,-5.372178497E0,1.010477946E1
4.307555542E0,6.855743408E0,5.036277008E0,-5.303171997E0,1.002441704E1
4.317572542E0,6.730304260E0,4.962031403E0,-5.146597595E0,9.818666808E0
4.327589542E0,6.444548492E0,4.944667511E0,-5.059778137E0,9.569916241E0
4.337606542E0,6.221961365E0,4.969815216E0,-5.034780121E0,9.421299134E0
4.347623542E0,6.227799225E0,5.051395569E0,-5.141508179E0,9.525606896E0
4.357640542E0,6.305637360E0,5.094805298E0,-5.159171448E0,9.609118251E0
4.367656542E0,6.350543976E0,5.113516388E0,-5.199437714E0,9.670140184E0
4.377673542E0,6.542444916E0,5.132975922E0,-5.351072388E0,9.888629985E0
4.387690542E0,6.782246246E0,5.175188141E0,-5.563181305E0,1.018481334E1
4.397707542E0,6.808441772E0,5.130281525E0,-5.630990295E0,1.021678617E1
4.407724542E0,6.719676361E0,5.054988098E0,-5.580096130E0,1.009180003E1
4.417741542E0,6.593788147E0,5.013374634E0,-5.493576050E0,9.939383540E0
4.427757542E0,6.365812225E0,4.951403503E0,-5.241799622E0,9.618545899E0
4.437774542E0,6.226452026E0,4.913382568E0,-4.972808990E0,9.361563030E0
4.447791542E0,6.191574554E0,4.956492920E0,-4.918471985E0,9.332405059E0
4.457808542E0,6.180946655E0,5.031786346E0,-5.027595062E0,9.423358610E0
4.467825542E0,6.268364868E0,5.099894714E0,-5.160818024E0,9.588293221E0
4.477842542E0,6.507866821E0,5.133874054E0,-5.303471375E0,9.840518380E0
4.487858542E0,6.655160522E0,5.144501953E0,-5.324128418E0,9.955069329E0
4.497875542E0,6.642886047E0,5.147495728E0,-5.236560516E0,9.901828788E0
4.507892542E0,6.596632233E0,5.153183899E0,-5.148543549E0,9.827429052E0
4.517909542E0,6.532116394E0,5.157375183E0,-5.027744751E0,9.723439754E0
4.527926542E0,6.363417206E0,5.203928375E0,-5.153632965E0,9.702261685E0
4.537943542E0,6.250701599E0,5.171296234E0,-5.255271606E0,9.665994769E0
4.547959542E0,6.135590973E0,5.101840668E0,-5.207371216E0,9.528429554E0
4.557976542E0,6.038442993E0,5.048701172E0,-5.212760010E0,9.440606136E0
4.567993542E0,6.145620117E0,5.016069031E0,-5.276826782E0,9.527565063E0
4.578010542E0,6.350993042E0,5.067412262E0,-5.361550598E0,9.734475048E0
4.588027542E0,6.564000092E0,5.179379425E0,-5.470224609E0,9.991767897E0
4.598044542E0,6.684798889E0,5.144202576E0,-5.530998230E0,1.008668914E1
4.608060542E0,6.650969238E0,4.999603271E0,-5.460644531E0,9.952389832E0
4.618077542E0,6.576424255E0,4.931045837E0,-5.234614563E0,9.745037643E0
4.628094542E0,6.357878723E0,4.937632141E0,-5.203628998E0,9.585436232E0
4.638111542E0,6.176455994E0,4.916825409E0,-5.029391327E0,9.360478506E0
4.648128542E0,6.092330933E0,4.993166656E0,-5.308111725E0,9.498645142E0
4.658145542E0,6.072871399E0,5.061125336E0,-5.791755981E0,9.799958880E0
4.668161542E0,6.088588715E0,5.083878021E0,-6.191125488E0,1.006214505E1
4.678178542E0,6.134692841E0,5.071902924E0,-6.258934479E0,1.012585386E1
4.688195542E0,6.138884125E0,5.113965454E0,-6.196813660E0,1.011133228E1
4.698212542E0,6.087391205E0,5.096601562E0,-5.915249176E0,9.900598567E0
4.708229542E0,6.147266693E0,4.991819458E0,-5.607938232E0,9.703407675E0
4.718246542E0,6.248007202E0,4.871170349E0,-5.525609436E0,9.659102143E0
4.728262542E0,6.281836853E0,4.818030853E0,-5.512885895E0,9.647113892E0
4.738279541E0,6.240971832E0,4.805307312E0,-5.491929474E0,9.602187101E0
4.748296542E0,6.212980042E0,4.852758636E0,-5.356311493E0,9.531026188E0
4.758313542E0,6.080804901E0,4.935686188E0,-5.506449280E0,9.573827346E0
4.768330542E0,6.047274628E0,4.975952454E0,-5.751489716E0,9.716443135E0
4.778347542E0,6.087690582E0,4.961133270E0,-5.897436218E0,9.821027131E0
4.788363542E0,6.127507782E0,4.932393036E0,-5.999523926E0,9.892883301E0
4.798380542E0,6.087391205E0,4.929698639E0,-6.071075134E0,9.910409358E0
4.808397542E0,6.018534393E0,4.952601013E0,-6.156996460E0,9.932754827E0
4.818414542E0,6.130351868E0,5.046006775E0,-6.079607391E0,1.000025122E1
4.828431542E0,6.349346466E0,5.065166931E0,-5.702541504E0,9.924167279E0
4.838448542E0,6.404282227E0,5.027445374E0,-5.527405701E0,9.840846082E0
4.848464542E0,6.337371368E0,4.977898407E0,-5.500611420E0,9.756970555E0
4.858481000E0,6.140081635E0,5.016667786E0,-5.641169128E0,9.730896530E0
4.868498000E0,6.003116455E0,5.011728058E0,-5.759273529E0,9.712057294E0
4.878515000E0,6.127807159E0,4.995711365E0,-5.995482330E0,9.922346547E0
4.888532000E0,6.307283936E0,5.003345490E0,-6.112688599E0,1.010842513E1
4.898549000E0,6.267616425E0,4.940775604E0,-6.048921204E0,1.001417630E1
4.908565000E0,6.303541718E0,4.895120544E0,-6.086343384E0,1.003695268E1
4.918582000E0,6.501879272E0,4.808600464E0,-6.091732178E0,1.012453818E1
4.928599000E0,6.608757019E0,4.755760345E0,-5.673352203E0,9.923701478E0
4.938616000E0,6.638994141E0,4.814737701E0,-5.433550873E0,9.837754694E0
4.948633000E0,6.461912384E0,4.889432373E0,-5.318889313E0,9.692958481E0
4.958650000E0,5.795198822E0,4.955145721E0,-5.226381683E0,9.244071831E0
4.968666000E0,5.237907715E0,4.913831635E0,-5.355563049E0,8.958988455E0
4.978683000E0,5.297184448E0,4.805307312E0,-5.776787109E0,9.193607059E0
4.988700000E0,5.830375671E0,4.766388245E0,-6.048921204E0,9.659253858E0
4.998717000E0,6.347250824E0,4.823269958E0,-6.119274902E0,1.004972892E1
5.008734000E0,6.654561768E0,4.848567352E0,-6.056705017E0,1.022132444E1
5.018751000E0,6.921456757E0,4.702022095E0,-5.747597809E0,1.015137705E1
5.028767000E0,7.123087463E0,4.536466370E0,-5.370082855E0,1.000778157E1
5.038784000E0,7.057074738E0,4.521946564E0,-5.079836426E0,9.800767454E0
5.048801000E0,6.731651459E0,4.689298553E0,-4.962480469E0,9.588058442E0
5.058818000E0,6.206393738E0,4.854854279E0,-5.024900665E0,9.345510151E0
5.068835000E0,6.076763306E0,4.909041595E0,-5.707181854E0,9.674588693E0
5.078852000E0,6.385720825E0,4.898713074E0,-6.455475769E0,1.031736341E1
5.088868000E0,6.540798340E0,4.857997742E0,-6.791377258E0,1.060683695E1
5.098885000E0,6.381978607E0,4.841082916E0,-6.772666168E0,1.048974460E1
5.108902000E0,6.338419189E0,4.827461243E0,-6.433920593E0,1.024086296E1
5.118919000E0,6.428831177E0,4.855602722E0,-5.948180695E0,1.001436976E1
5.128936000E0,6.617139587E0,4.959486694E0,-5.542973328E0,9.955279901E0
5.138953000E0,6.762487335E0,5.033582611E0,-5.107828217E0,9.856880741E0
5.148969000E0,6.479725342E0,5.037773895E0,-4.886438599E0,9.552135285E0
5.158986000E0,6.091582489E0,4.936284943E0,-5.042563934E0,9.322110131E0
5.169003000E0,6.230044556E0,4.803211670E0,-5.647006989E0,9.683645256E0
5.179020000E0,6.589447174E0,4.739444275E0,-6.030659180E0,1.011197292E1
5.189037000E0,6.605014801E0,4.792883148E0,-6.051016846E0,1.015936781E1
5.199054000E0,6.514902191E0,4.933440857E0,-6.027515717E0,1.015449334E1
5.209070000E0,6.478228455E0,4.933740234E0,-5.819897461E0,1.000901809E1
5.219087000E0,6.474336548E0,4.792883148E0,-5.504503326E0,9.756450147E0
5.229104000E0,6.436764679E0,4.679868164E0,-5.233866119E0,9.525043838E0
5.239121000E0,6.313720551E0,4.611610107E0,-4.933291168E0,9.244856771E0
5.249138000E0,6.242768097E0,4.643044739E0,-4.856949921E0,9.171694527E0
5.259155000E0,6.492897949E0,4.807253265E0,-5.204078064E0,9.609882217E0
5.269171000E0,6.761589203E0,4.917274475E0,-5.609135742E0,1.006782402E1
5.279188000E0,6.709497528E0,4.945266266E0,-5.854625244E0,1.018575732E1
5.289205000E0,6.650819550E0,4.934338989E0,-5.957311707E0,1.020150306E1
5.299222000E0,6.581064606E0,4.928650818E0,-5.829327850E0,1.007884286E1
5.309239000E0,6.454577637E0,4.939428406E0,-5.586682434E0,9.862583133E0
5.319256000E0,6.288423157E0,4.974754944E0,-5.352269897E0,9.640500278E0
5.329272000E0,6.133046265E0,4.996310120E0,-5.131928101E0,9.429425079E0
5.339289000E0,6.167624359E0,5.037474518E0,-5.212760010E0,9.517804719E0
5.349306000E0,6.333629150E0,4.971910858E0,-5.815406799E0,9.932457502E0
5.359323000E0,6.501280518E0,4.831502838E0,-6.265670471E0,1.024054171E1
5.369340000E0,6.637796631E0,4.818030853E0,-6.300248566E0,1.034248023E1
5.379356000E0,6.865173798E0,4.988675995E0,-6.098917236E0,1.045056414E1
5.389373000E0,6.995852051E0,5.128335571E0,-5.699547729E0,1.037914332E1
5.399390000E0,6.761140137E0,5.128634949E0,-5.448819122E0,1.008491657E1
5.409407000E0,6.416856079E0,4.989873505E0,-5.318589935E0,9.714024832E0
5.419424000E0,6.122418365E0,4.819527740E0,-5.252726898E0,9.396967285E0
5.429441000E0,6.022276611E0,4.690346375E0,-5.278323669E0,9.280509978E0
5.439457000E0,6.006259918E0,4.676275635E0,-5.251379700E0,9.247686239E0
5.449474000E0,5.917045441E0,4.828958130E0,-5.539829865E0,9.435039920E0
5.459491000E0,5.855523376E0,4.956193542E0,-5.730233917E0,9.575311441E0
5.469508000E0,5.969586182E0,5.064418488E0,-5.765560455E0,9.722447283E0
5.479525000E0,6.322252808E0,5.149890747E0,-5.677094421E0,9.935877230E0
5.489542000E0,6.716233521E0,5.087919617E0,-5.296286316E0,9.952153911E0
5.499558000E0,6.677164764E0,4.981041870E0,-5.084626465E0,9.759545773E0
5.509575000E0,6.606062622E0,4.917573853E0,-5.078189850E0,9.675257522E0
5.519592000E0,6.670728149E0,4.882995758E0,-5.218897247E0,9.776458975E0
5.529609000E0,6.583309937E0,4.914879456E0,-5.322631531E0,9.789096802E0
5.539626000E0,6.205645294E0,5.034929810E0,-5.228776703E0,9.549903534E0
5.549643000E0,5.756579132E0,5.072052612E0,-5.286556549E0,9.317274341E0
5.559659000E0,5.519621887E0,4.957540741E0,-5.567821655E0,9.275994500E0
5.569676000E0,5.370980988E0,4.921016693E0,-5.710924072E0,9.256267921E0
5.579693000E0,5.296136627E0,5.033432922E0,-6.006858673E0,9.458692366E0
5.589710000E0,5.468727722E0,5.112169189E0,-6.301146698E0,9.784973502E0
5.599727000E0,5.871689758E0,5.137765961E0,-6.425238647E0,1.010727814E1
5.609744000E0,6.118227081E0,5.148992615E0,-6.440207520E0,1.026747780E1
5.619760000E0,6.080804901E0,5.160518646E0,-6.241271210E0,1.012722110E1
5.629777000E0,6.087989960E0,5.127886505E0,-6.001020813E0,9.968505031E0
5.639794000E0,6.139931946E0,5.088668060E0,-5.758076019E0,9.836094061E0
5.649811000E0,6.031856689E0,5.054539032E0,-5.682183838E0,9.706640671E0
5.659828000E0,5.884562988E0,5.009333038E0,-5.791306915E0,9.657159771E0
5.669845000E0,5.642516327E0,5.000800781E0,-5.940396881E0,9.598662097E0
5.679861000E0,5.344486084E0,4.946763153E0,-6.125112762E0,9.515829105E0
5.689878000E0,5.395380249E0,4.901557159E0,-6.461014252E0,9.740641446E0
5.699895000E0,5.725294189E0,4.952601013E0,-6.688840485E0,1.010187296E1
5.709912000E0,6.002817078E0,4.990771637E0,-6.739285583E0,1.031307833E1
5.719929000E0,6.044729919E0,5.010380859E0,-6.498735809E0,1.019196955E1
5.729946000E0,5.796995087E0,5.015170898E0,-6.017336884E0,9.745021003E0
5.739962000E0,5.485343170E0,5.008883972E0,-5.644162903E0,9.329227364E0
5.749979000E0,5.472769318E0,4.960983582E0,-5.628744965E0,9.286836489E0
5.759996000E0,5.667065277E0,4.894671478E0,-5.852529602E0,9.503974983E0
5.770013000E0,5.830076294E0,4.895868988E0,-5.989794159E0,9.686947755E0
5.780030000E0,5.863007812E0,4.955295410E0,-6.022126923E0,9.756834829E0
5.790047000E0,5.831573181E0,5.020559692E0,-6.111191711E0,9.826491211E0
5.800063000E0,5.743556213E0,5.097350006E0,-6.277944946E0,9.918871297E0
5.810080000E0,5.718258820E0,5.116809540E0,-6.336473236E0,9.951437930E0
5.820097000E0,5.715115356E0,5.161566467E0,-6.243815918E0,9.914108591E0
5.830114000E0,5.796246643E0,5.229525146E0,-6.152356110E0,9.939612372E0
5.840131000E0,5.864055634E0,5.202880554E0,-5.857619019E0,9.786154255E0
5.850148000E0,5.777685242E0,5.139412537E0,-5.643564148E0,9.573140773E0
5.860164000E0,5.771847382E0,5.117258606E0,-5.692961426E0,9.586989498E0
5.870181000E0,5.948031006E0,5.066214752E0,-5.988297272E0,9.844049420E0
5.880198000E0,6.112688599E0,5.057083740E0,-6.172863464E0,1.005202971E1
5.890215000E0,6.098168793E0,5.073699188E0,-6.240672455E0,1.009336806E1
5.900232000E0,6.035898285E0,5.048102417E0,-6.297404480E0,1.007832870E1
5.910249000E0,6.072721710E0,5.038971405E0,-6.424340515E0,1.017552617E1
5.920265000E0,6.068979492E0,4.967420197E0,-6.462361450E0,1.016217944E1
5.930282000E0,5.882766724E0,4.858895874E0,-6.186036072E0,9.822568693E0
5.940299000E0,5.613027649E0,4.743036804E0,-5.763614502E0,9.339257446E0
5.950316000E0,5.473218384E0,4.608017578E0,-5.434748383E0,8.984789116E0
5.960333000E0,5.621709595E0,4.581522675E0,-5.270240479E0,8.964898409E0
5.970350000E0,5.955365753E0,4.656816101E0,-5.179828491E0,9.164220679E0
5.980366000E0,6.468049622E0,4.748575287E0,-5.218897247E0,9.571913165E0
5.990383000E0,7.060517578E0,4.790338440E0,-5.248685303E0,1.001733239E1
6.000400000E0,7.479196930E0,4.726121979E0,-5.567971344E0,1.045356019E1
6.010417000E0,7.567064209E0,4.774172058E0,-6.238726501E0,1.090756104E1
6.020434000E0,7.241341553E0,4.977449341E0,-6.657854919E0,1.102447557E1
6.030451000E0,6.794221344E0,5.109025726E0,-6.444398804E0,1.066742066E1
6.040467000E0,6.235283661E0,5.030888214E0,-5.638474731E0,9.796989122E0
6.050484000E0,5.544320526E0,4.796775055E0,-4.937183075E0,8.838796170E0
6.060501000E0,5.275928650E0,4.664599915E0,-4.799469452E0,8.522254543E0
6.070518000E0,5.711822205E0,4.591851196E0,-5.170248413E0,8.968917379E0
6.080535000E0,6.382128296E0,4.465513916E0,-5.394631805E0,9.474936857E0
6.090551000E0,6.940167847E0,4.426594849E0,-5.399122467E0,9.844348384E0
6.100568000E0,7.212900696E0,4.610262909E0,-5.664221191E0,1.026469007E1
6.110585000E0,7.079977112E0,4.786446533E0,-5.766159210E0,1.030944898E1
6.120602000E0,6.683302002E0,4.894821167E0,-5.870791626E0,1.015342278E1
6.130619000E0,6.191724243E0,4.950954437E0,-5.607189789E0,9.710302584E0
6.140636000E0,6.107748871E0,4.930297394E0,-5.164111176E0,9.395768883E0
6.150652000E0,6.600374451E0,4.959187317E0,-5.022505646E0,9.663542037E0
6.160669000E0,7.054829407E0,5.003046112E0,-5.164111176E0,1.007318880E1
6.170686000E0,7.115453339E0,5.037474518E0,-5.369933167E0,1.023923864E1
6.180703000E0,7.030430145E0,5.014272766E0,-5.565875702E0,1.027369708E1
6.190720000E0,6.944059753E0,5.005441132E0,-5.524112549E0,1.018774883E1
6.200737000E0,6.799161072E0,5.070106659E0,-5.351820831E0,1.002878652E1
6.210753000E0,6.794969788E0,5.124144287E0,-5.278024292E0,1.001429027E1
6.220770000E0,6.866520996E0,5.125491486E0,-5.096152496E0,9.969480620E0
6.230787000E0,6.838828583E0,5.085674286E0,-4.955894165E0,9.858729447E0
6.240804000E0,6.663243713E0,4.983586578E0,-4.968468018E0,9.691265470E0
6.250821000E0,6.506220245E0,4.890180817E0,-5.260361023E0,9.691035465E0
6.260838000E0,6.486012268E0,4.867727509E0,-5.612728271E0,9.862344797E0
6.270854000E0,6.568191376E0,4.901257782E0,-5.817951508E0,1.005047390E1
6.280871000E0,6.763086090E0,4.966372375E0,-5.861211548E0,1.023513502E1
6.290888000E0,6.941964111E0,4.970563660E0,-5.590574341E0,1.020548334E1
6.300905000E0,6.980583801E0,4.968318329E0,-5.191803589E0,1.001836123E1
6.310922000E0,6.931785278E0,4.966522064E0,-4.875661011E0,9.822833545E0
6.320939000E0,6.795119476E0,4.908293152E0,-4.740791473E0,9.630165843E0
6.330955000E0,6.629264374E0,4.892426147E0,-4.752616882E0,9.511590139E0
6.340972000E0,6.480922852E0,4.865482178E0,-4.966222687E0,9.504664413E0
6.350989000E0,6.448290710E0,4.862488403E0,-5.099445648E0,9.551366001E0
6.361006000E0,6.502328339E0,4.870571594E0,-5.447172546E0,9.781330698E0
6.371023000E0,6.567442932E0,4.835394745E0,-5.742957458E0,9.974663372E0
6.381040000E0,6.583908691E0,4.734803925E0,-5.739364929E0,9.935116086E0
6.391056000E0,6.679110718E0,4.741390228E0,-5.589825897E0,9.916524333E0
6.401073000E0,6.682852936E0,4.878654785E0,-5.398523712E0,9.879567508E0
6.411090000E0,6.580166473E0,4.993615723E0,-5.206473083E0,9.764330534E0
6.421107000E0,6.555018768E0,5.011578369E0,-5.101092224E0,9.700790209E0
6.431124000E0,6.456673279E0,4.968318329E0,-4.897814941E0,9.505861773E0
6.441141000E0,6.286177826E0,4.902604980E0,-4.918172607E0,9.366962637E0
6.451157000E0,6.124364319E0,4.822072449E0,-5.228177948E0,9.385843897E0
6.461174000E0,6.126609650E0,4.756359100E0,-5.545817413E0,9.534903695E0
6.471191000E0,6.199208679E0,4.769681396E0,-5.948779449E0,9.826903165E0
6.481208000E0,6.210734711E0,4.830904083E0,-6.010451202E0,9.901332414E0
6.491225000E0,6.230942688E0,4.976850586E0,-5.790558472E0,9.855163923E0
6.501242000E0,6.380930786E0,5.156926117E0,-5.300776978E0,9.767722418E0
6.511258000E0,6.532864838E0,5.224136353E0,-4.834047546E0,9.661156209E0
6.521275000E0,6.221212921E0,5.102140045E0,-4.496200104E0,9.216894196E0
6.531292000E0,5.655838623E0,5.013524323E0,-4.487817535E0,8.790019505E0
6.541309000E0,5.787415009E0,5.037624207E0,-4.812791748E0,9.057306141E0
6.551326000E0,6.358926544E0,5.087919617E0,-5.385051727E0,9.763280951E0
6.561342000E0,6.453529816E0,5.112468567E0,-5.821544037E0,1.008343974E1
6.571359000E0,6.291117554E0,5.070106659E0,-5.985453186E0,1.005533647E1
6.581376000E0,6.360872498E0,5.031187592E0,-6.227948914E0,1.022550220E1
6.591393000E0,6.387816467E0,4.982089691E0,-6.155798950E0,1.017444237E1
6.601410000E0,6.241121521E0,4.986430664E0,-5.689219208E0,9.807308693E0
6.611427000E0,6.275549927E0,5.068759460E0,-5.419330444E0,9.718229871E0
6.621443000E0,6.415658569E0,5.158423004E0,-5.361251221E0,9.824103899E0
6.631460000E0,6.256988525E0,5.174888763E0,-5.424419861E0,9.764922424E0
6.641477000E0,6.043382721E0,5.049898682E0,-5.638923798E0,9.686145415E0
6.651494000E0,6.101012878E0,4.897515564E0,-5.780529327E0,9.727411585E0
6.661511000E0,6.134543152E0,4.833299103E0,-5.957311707E0,9.822574137E0
6.671528000E0,6.171067200E0,4.845124512E0,-6.180048523E0,9.987507280E0
6.681544000E0,6.285878448E0,4.906646576E0,-6.423292694E0,1.023944029E1
6.691561000E0,6.358327789E0,4.992418213E0,-6.413862305E0,1.031940897E1
6.701578000E0,6.347699890E0,4.995561676E0,-6.270310822E0,1.022573851E1
6.711595000E0,6.282884674E0,4.952900391E0,-5.924829254E0,9.955373614E0
6.721612000E0,6.187083893E0,4.961732025E0,-5.679489441E0,9.754762534E0
6.731629000E0,6.146218872E0,4.966072998E0,-5.555996246E0,9.659553910E0
6.741645000E0,6.050867157E0,4.866979065E0,-5.418881378E0,9.469147478E0
6.751662000E0,5.929768982E0,4.780908051E0,-5.552403717E0,9.425944462E0
6.761679000E0,5.934559021E0,4.716691589E0,-5.807473297E0,9.549498229E0
6.771696000E0,6.084846497E0,4.712649994E0,-5.955515442E0,9.731525627E0
6.781713000E0,6.270011444E0,4.857548676E0,-6.037395172E0,9.967896624E0
6.791730000E0,6.524332581E0,4.971012726E0,-5.933960266E0,1.012372301E1
6.801746000E0,6.716832275E0,5.045258331E0,-5.837560730E0,1.022974011E1
6.811763000E0,6.802005157E0,5.088218994E0,-5.792205048E0,1.028138541E1
6.821780000E0,6.517297211E0,5.123246155E0,-5.623954926E0,1.001756872E1
6.831797000E0,6.090085602E0,5.114264832E0,-5.586532745E0,9.718754834E0
6.841814000E0,5.894292755E0,4.986580353E0,-5.759872284E0,9.632486669E0
6.851831000E0,5.867498474E0,4.816384277E0,-6.012546844E0,9.683791376E0
6.861847542E0,6.005361786E0,4.731660461E0,-6.156996460E0,9.816393753E0
6.871864542E0,6.271059265E0,4.701872406E0,-6.189778290E0,9.987349183E0
6.881881542E0,6.535110168E0,4.720134430E0,-6.244863739E0,1.019733578E1
6.891898542E0,6.683302002E0,4.710404663E0,-6.032904510E0,1.016121915E1
6.901915542E0,6.650669861E0,4.697681122E0,-5.829178162E0,1.001393707E1
6.911932542E0,6.523135071E0,4.719236298E0,-5.398673401E0,9.693717392E0
6.921948542E0,6.199957123E0,4.721331940E0,-4.808750153E0,9.157211455E0
6.931965542E0,5.960006104E0,4.618346100E0,-4.292024689E0,8.675959277E0
6.941982542E0,5.983956299E0,4.517605591E0,-4.316873016E0,8.651698440E0
6.951999542E0,6.426286469E0,4.570296021E0,-5.202581177E0,9.447307256E0
6.962016542E0,7.046596527E0,4.765190735E0,-6.234535217E0,1.054661058E1
6.972033542E0,6.812782745E0,5.012775879E0,-6.584058380E0,1.071875718E1
6.982049542E0,6.228996735E0,5.152734833E0,-6.809040527E0,1.056948956E1
6.992066542E0,6.341712341E0,5.153483276E0,-6.712191925E0,1.057493384E1
7.002083542E0,6.828799438E0,5.178481293E0,-6.600823517E0,1.081758020E1
7.012100541E0,6.780449982E0,5.027744751E0,-5.466632080E0,1.005667865E1
7.022117542E0,5.704337769E0,4.705315247E0,-3.465443573E0,8.166318638E0
7.032133542E0,4.834346924E0,4.496349792E0,-3.172203369E0,7.324680597E0
7.042150542E0,5.733078003E0,4.513863373E0,-4.334236908E0,8.486975640E0
7.052167542E0,7.341782684E0,4.878804474E0,-5.815556488E0,1.056054939E1
7.062184542E0,7.896379395E0,5.432503052E0,-6.663543091E0,1.167337584E1
7.072201542E0,7.484136658E0,5.700445862E0,-6.722221069E0,1.156268311E1
7.082218542E0,7.138804779E0,5.457351379E0,-5.309159546E0,1.043706821E1
7.092234542E0,6.329886932E0,5.224585419E0,-3.296594696E0,8.844845842E0
7.102251542E0,5.570965118E0,5.235812073E0,-3.811224518E0,8.542529645E0
7.112268542E0,6.438710632E0,5.059478760E0,-5.511838074E0,9.870951265E0
7.122285542E0,7.759414215E0,4.707261200E0,-6.723717957E0,1.129491922E1
7.132302542E0,7.439978485E0,4.485572205E0,-6.998995514E0,1.115614522E1
7.142319542E0,6.041586456E0,4.425846405E0,-6.634204102E0,1.000507608E1
7.152335542E0,5.672903137E0,4.383783875E0,-6.466702423E0,9.654927824E0
7.162352542E0,5.902375946E0,4.337230682E0,-6.181844788E0,9.584613544E0
7.172369542E0,5.604944458E0,4.489763489E0,-5.423821106E0,8.999511873E0
7.182386542E0,5.397176514E0,4.752467194E0,-5.461243286E0,9.029985436E0
7.192403542E0,5.517376556E0,4.793631592E0,-5.568719788E0,9.188633629E0
7.202420542E0,5.630092163E0,4.645439758E0,-5.758525085E0,9.297239347E0
7.212436542E0,5.928421783E0,4.462969208E0,-6.072422333E0,9.588461398E0
7.222453542E0,6.400090942E0,4.375550995E0,-6.409371643E0,1.005915779E1
7.232470542E0,6.729106750E0,4.383933563E0,-6.378984833E0,1.025627606E1
7.242487542E0,6.893315277E0,4.492158508E0,-6.137985992E0,1.026509404E1
7.252504542E0,7.139104156E0,4.586462402E0,-5.624403992E0,1.018019478E1
7.262521542E0,7.179220734E0,4.621639252E0,-4.923262024E0,9.855925561E0
7.272537542E0,6.820865936E0,4.670437775E0,-4.688699799E0,9.503741733E0
7.282554542E0,6.566544800E0,4.806355133E0,-5.026846619E0,9.565027297E0
7.292571542E0,6.746919708E0,4.912185059E0,-5.485193481E0,9.986883154E0
7.302588542E0,7.137607269E0,4.960983582E0,-5.915398865E0,1.051421606E1
7.312605542E0,7.389084320E0,5.063819733E0,-5.766009521E0,1.065306074E1
7.322621542E0,7.327562256E0,5.158423004E0,-5.575904846E0,1.055429824E1
7.332638542E0,7.135960693E0,5.144052887E0,-5.376968536E0,1.030994693E1
7.342655542E0,6.973997498E0,5.042563934E0,-5.027894440E0,9.967136732E0
7.352672542E0,6.763684845E0,4.977149963E0,-5.249733124E0,9.903491925E0
7.362689542E0,6.612499237E0,4.939428406E0,-5.387746124E0,9.856515989E0
7.372706542E0,6.450536041E0,4.936734009E0,-5.593268738E0,9.862322904E0
7.382722542E0,6.336473236E0,4.812492371E0,-5.590424652E0,9.724393229E0
7.392739542E0,6.170318756E0,4.606969757E0,-5.419330444E0,9.416270300E0
7.402756542E0,5.960006104E0,4.517156525E0,-5.647156677E0,9.371059404E0
7.412773542E0,6.041436768E0,4.538711700E0,-5.977669373E0,9.634904942E0
7.422790542E0,6.305337982E0,4.684807892E0,-5.962550812E0,9.861882388E0
7.432807542E0,6.484216003E0,4.896318054E0,-5.827381897E0,9.998868308E0
7.442823542E0,6.472689972E0,5.049299927E0,-5.621410217E0,9.949442098E0
7.452840541E0,6.402935028E0,5.232219543E0,-5.427413635E0,9.890931053E0
7.462857542E0,6.311624908E0,5.284610596E0,-5.188211060E0,9.730429185E0
7.472874542E0,6.131250000E0,5.126389618E0,-5.391188965E0,9.640384615E0
7.482891542E0,5.959856415E0,4.847369843E0,-5.658682709E0,9.541361165E0
7.492908542E0,5.839207306E0,4.644841003E0,-5.662424927E0,9.366640057E0
7.502924542E0,5.818250885E0,4.615801392E0,-5.642965393E0,9.327417878E0
7.512941542E0,6.007158051E0,4.729714508E0,-5.666017456E0,9.516296600E0
7.522958542E0,6.344855804E0,4.953349457E0,-5.584886169E0,9.797133231E0
7.532975542E0,6.520440674E0,5.145100708E0,-5.315147095E0,9.860983547E0
7.542992542E0,6.635251923E0,5.226830750E0,-5.219496002E0,9.929222844E0
7.553009542E0,6.745422821E0,5.146298218E0,-5.050048370E0,9.873606379E0
7.563025542E0,6.703809357E0,5.059029694E0,-4.779261475E0,9.663135183E0
7.573042542E0,6.453829193E0,4.972359924E0,-4.588857422E0,9.350608906E0
7.583059542E0,6.135890350E0,4.815037079E0,-4.626429291E0,9.068493836E0
7.593076542E0,5.949527893E0,4.692891083E0,-4.661456451E0,8.896588397E0
7.603093542E0,5.931415558E0,4.743934937E0,-5.171894989E0,9.188857762E0
7.613110542E0,6.154152374E0,4.858297119E0,-5.697152710E0,9.691965298E0
7.623126542E0,6.250252533E0,5.053940277E0,-5.930966492E0,9.989210808E0
7.633143542E0,6.061794434E0,5.233117676E0,-6.360573120E0,1.022681587E1
7.643160542E0,5.910908203E0,5.208718414E0,-6.237079926E0,1.004842024E1
7.653177542E0,5.866600342E0,5.074597321E0,-6.057902527E0,9.842089238E0
7.663194542E0,6.279591522E0,4.863685913E0,-5.731730804E0,9.794970565E0
7.673211541E0,6.899602203E0,4.721032562E0,-5.140909424E0,9.814357275E0
7.683227542E0,7.138505402E0,4.753215637E0,-4.883444824E0,9.869110984E0
7.693244542E0,6.905739441E0,4.845274200E0,-4.771477661E0,9.691899627E0
7.703261542E0,6.450236664E0,4.966522064E0,-5.143304443E0,9.629406785E0
7.713278542E0,6.180647278E0,5.006189575E0,-5.956413574E0,9.936860546E0
7.723295542E0,6.314768372E0,4.970713348E0,-6.385421448E0,1.026439954E1
7.733311542E0,6.534960480E0,4.986730042E0,-6.403234406E0,1.041991343E1
7.743328542E0,6.442752228E0,5.039270782E0,-6.337221680E0,1.034715830E1
7.753345542E0,6.043382721E0,5.143903198E0,-6.492897949E0,1.025377680E1
7.763362542E0,5.811065826E0,5.191354523E0,-6.572083282E0,1.019367090E1
7.773379542E0,5.730682983E0,5.128634949E0,-6.399791565E0,1.000504653E1
7.783396542E0,5.538632355E0,5.049599304E0,-6.018384705E0,9.612276315E0
7.793412542E0,5.265749817E0,4.899311829E0,-5.585933990E0,9.106812619E0
7.803429542E0,5.235812073E0,4.830155640E0,-5.613177338E0,9.069282849E0
7.813446542E0,5.532195740E0,4.852758636E0,-5.896837463E0,9.430119202E0
7.823463542E0,5.838159485E0,4.894521790E0,-6.121819611E0,9.773286298E0
7.833480542E0,6.286327515E0,4.905449066E0,-6.245761871E0,1.012871589E1
7.843497542E0,6.767576752E0,4.888983307E0,-6.285429382E0,1.045030504E1
7.853513542E0,6.906487885E0,4.893923035E0,-6.104755096E0,1.043638311E1
7.863530500E0,6.724167023E0,4.972060547E0,-5.810616760E0,1.018327429E1
7.873547500E0,6.543193359E0,4.952301636E0,-5.629643097E0,9.951459804E0
7.883564500E0,6.368506622E0,4.842280426E0,-5.558091888E0,9.741557461E0
7.893581500E0,6.211183777E0,4.820276184E0,-5.505102081E0,9.597917239E0
7.903598500E0,6.137387238E0,4.839735718E0,-5.427413635E0,9.515638848E0
7.913614500E0,6.255341949E0,4.854854279E0,-5.528303833E0,9.657176411E0
7.923631500E0,6.578669586E0,4.898563385E0,-5.936504974E0,1.012506336E1
7.933648500E0,6.741081848E0,4.972659302E0,-6.148314514E0,1.039092375E1
7.943665500E0,6.426885223E0,5.079387360E0,-6.028413849E0,1.017088016E1
7.953682500E0,6.054309998E0,5.184169464E0,-6.062991943E0,1.001449719E1
7.963698500E0,5.971232758E0,5.147645416E0,-5.755381622E0,9.761059963E0
7.973715500E0,6.099965057E0,5.030139771E0,-5.755231934E0,9.779293145E0
7.983732500E0,6.184838562E0,4.857997742E0,-5.795348511E0,9.769259668E0
7.993749500E0,6.000422058E0,4.697681122E0,-5.607339478E0,9.461264652E0
8.003766500E0,5.695805511E0,4.647834778E0,-5.279521179E0,9.050851475E0
8.013783500E0,5.491181030E0,4.587510223E0,-4.997208252E0,8.727566068E0
8.023799500E0,5.645959167E0,4.542603607E0,-5.022505646E0,8.816896586E0
8.033816500E0,6.207441559E0,4.578229523E0,-5.276826782E0,9.345449008E0
8.043833500E0,6.825057220E0,4.519701233E0,-5.522166595E0,9.874382472E0
8.053850500E0,7.355404358E0,4.325704651E0,-6.062093811E0,1.046721908E1
8.063867500E0,7.515271912E0,4.374353485E0,-6.352639618E0,1.076895122E1
8.073884500E0,7.266638947E0,4.672084351E0,-6.081403656E0,1.056484189E1
8.083900500E0,6.745722198E0,4.892276459E0,-5.609734497E0,1.004531025E1
8.093917500E0,6.181844788E0,4.790188751E0,-4.960534515E0,9.261102306E0
8.103934500E0,5.884413300E0,4.608766022E0,-4.747527466E0,8.854719711E0
8.113951500E0,6.045628052E0,4.504882050E0,-5.438789978E0,9.296451863E0
8.123968500E0,6.436614990E0,4.529580688E0,-6.286776581E0,1.007326529E1
8.133985500E0,6.507567444E0,4.675676880E0,-6.544989624E0,1.034636542E1
8.144001500E0,6.285728760E0,4.821623383E0,-6.360124054E0,1.015921336E1
8.154018500E0,6.367009735E0,4.914131012E0,-6.184988251E0,1.014601282E1
8.164035500E0,6.782246246E0,4.963378601E0,-5.851930847E0,1.024104906E1
8.174052500E0,7.058571625E0,5.026547241E0,-5.474715271E0,1.024998136E1
8.184069500E0,6.891519012E0,5.062023468E0,-5.300627289E0,1.006050523E1
8.194086500E0,6.640191650E0,4.981640625E0,-5.229974213E0,9.811295467E0
8.204102500E0,6.469247131E0,4.842430115E0,-5.326822815E0,9.678601612E0
8.214119500E0,6.309080200E0,4.705015869E0,-5.550906830E0,9.630899955E0
8.224136500E0,6.230643311E0,4.637356567E0,-5.849535828E0,9.723325635E0
8.234153500E0,6.272705841E0,4.658312988E0,-6.205645294E0,9.977812986E0
8.244170500E0,6.306834869E0,4.681814117E0,-6.310427399E0,1.007556666E1
8.254186500E0,6.299799500E0,4.739743652E0,-6.246510315E0,1.005840617E1
8.264203500E0,6.312822418E0,4.676575012E0,-5.985453186E0,9.876625465E0
8.274220500E0,6.284680939E0,4.583169250E0,-5.343887329E0,9.437149287E0
8.284237500E0,6.263275452E0,4.598287811E0,-5.265899506E0,9.386296809E0
8.294254500E0,6.388415222E0,4.652026062E0,-5.656886444E0,9.718722127E0
8.304271500E0,6.526428223E0,4.721631317E0,-5.889652405E0,9.978781142E0
8.314287500E0,6.562652893E0,4.861290894E0,-5.925428009E0,1.009015655E1
8.324304500E0,6.532266083E0,4.894821167E0,-5.895490265E0,1.006909032E1
8.334321500E0,6.496789856E0,4.844226379E0,-5.721102905E0,9.919971074E0
8.344338500E0,6.458170166E0,4.813540192E0,-5.693410492E0,9.863724150E0
8.354355500E0,6.429878998E0,4.784201202E0,-5.743256836E0,9.859864307E0
8.364372500E0,6.360273743E0,4.733905792E0,-5.683231659E0,9.755104726E0
8.374388500E0,6.228697357E0,4.740192719E0,-5.536686401E0,9.587543694E0
8.384405500E0,6.167774048E0,4.758754120E0,-5.323829041E0,9.435588648E0
8.394422500E0,6.219865723E0,4.840484161E0,-5.420827332E0,9.565687925E0
8.404439500E0,6.189478912E0,4.840633850E0,-5.585634613E0,9.640575673E0
8.414456500E0,6.052064667E0,4.769232330E0,-5.809718628E0,9.650175868E0
8.424473500E0,5.965394897E0,4.763843536E0,-5.649252319E0,9.497062350E0
8.434489500E0,6.084247742E0,4.834346924E0,-5.434748383E0,9.482904130E0
8.444506500E0,6.547534332E0,4.869823151E0,-5.150938568E0,9.649743597E0
8.454523500E0,6.870562592E0,4.874313812E0,-4.915627899E0,9.753305240E0
8.464540500E0,6.891818390E0,4.861141205E0,-4.943470001E0,9.775773636E0
8.474557500E0,6.833888855E0,4.841531982E0,-5.041815491E0,9.775600864E0
8.484573500E0,6.662495270E0,4.936434631E0,-5.079387360E0,9.724063247E0
8.494590500E0,6.164480896E0,5.024152222E0,-5.372926941E0,9.597461861E0
8.504607500E0,5.923482056E0,4.965623932E0,-5.837710419E0,9.686275013E0
8.514624500E0,6.160289612E0,4.953050079E0,-6.340065765E0,1.013303050E1
8.524641500E0,6.511758728E0,4.951403503E0,-6.471342773E0,1.043061243E1
8.534658500E0,6.588399353E0,4.904850311E0,-6.220763855E0,1.030351714E1
8.544674500E0,6.437363434E0,4.869374084E0,-5.968987427E0,1.003888753E1
8.554691500E0,6.419700165E0,4.840783539E0,-5.691913605E0,9.851071818E0
8.564708500E0,6.407425690E0,4.836442566E0,-5.214256897E0,9.572604434E0
8.574725500E0,5.908812561E0,4.882397003E0,-4.705015869E0,8.993833482E0
8.584742500E0,5.454058228E0,4.865033112E0,-5.170697479E0,8.952732027E0
8.594759500E0,5.998176727E0,4.722230072E0,-6.087391205E0,9.763908674E0
8.604775500E0,6.868017883E0,4.670138397E0,-6.633755035E0,1.062951401E1
8.614792500E0,7.000941467E0,4.765789490E0,-6.670578461E0,1.078065619E1
8.624809500E0,6.668482819E0,4.818928986E0,-6.437812500E0,1.044682581E1
8.634826500E0,6.573430481E0,4.763843536E0,-6.246660004E0,1.024328828E1
8.644843500E0,6.591393127E0,4.808001709E0,-5.861810303E0,1.004610192E1
8.654860500E0,6.154002686E0,4.947960663E0,-5.446424103E0,9.592580429E0
8.664876500E0,5.708828430E0,4.919370117E0,-5.265001373E0,9.192995369E0
8.674893500E0,5.612728271E0,4.783901825E0,-5.278623047E0,9.069305188E0
8.684910500E0,5.581143951E0,4.721331940E0,-5.644611969E0,9.235896674E0
8.694927500E0,5.621260529E0,4.678371277E0,-6.100264435E0,9.523599840E0
8.704944500E0,5.841302948E0,4.614903259E0,-6.234535217E0,9.710179277E0
8.714961500E0,6.166726227E0,4.639452209E0,-6.120322723E0,9.849435486E0
8.724977500E0,6.461163940E0,4.689148865E0,-5.874982910E0,9.912122918E0
8.734994500E0,6.611451416E0,4.763544159E0,-5.666915588E0,9.925551625E0
8.745011500E0,6.681655426E0,4.771028595E0,-5.505700836E0,9.885341410E0
8.755028500E0,6.616989899E0,4.781357117E0,-5.401517487E0,9.788887698E0
8.765045500E0,6.474635925E0,4.831502838E0,-5.444328461E0,9.741921906E0
8.775061500E0,6.312073975E0,4.888534241E0,-5.550607452E0,9.723645817E0
8.785078500E0,5.983656921E0,4.909191284E0,-5.749244385E0,9.641479151E0
8.795095500E0,5.754932556E0,4.885241089E0,-5.882766724E0,9.570359113E0
8.805112500E0,5.822591858E0,4.817881165E0,-6.190975800E0,9.769479833E0
8.815129500E0,6.096522217E0,4.798421631E0,-6.335724792E0,1.001667819E1
8.825146500E0,6.369853821E0,4.814588013E0,-6.223607941E0,1.012366491E1
8.835162500E0,6.636748810E0,4.863536224E0,-5.920937347E0,1.013695805E1
8.845179500E0,6.983876953E0,4.863386536E0,-5.758225708E0,1.027541869E1
8.855196500E0,7.218588867E0,4.831951904E0,-6.042783966E0,1.058163610E1
8.865213000E0,7.121889954E0,4.863685913E0,-6.172115021E0,1.060527044E1
8.875230000E0,6.505920868E0,4.951702881E0,-5.582042084E0,9.899775835E0
8.885247000E0,5.701044617E0,4.946014709E0,-4.900359650E0,8.998805250E0
8.895263000E0,5.269492035E0,4.838687897E0,-4.869523773E0,8.654057352E0
8.905280000E0,5.242248688E0,4.673581238E0,-5.120102692E0,8.691316613E0
8.915297000E0,5.426515503E0,4.561763763E0,-5.397176514E0,8.909897500E0
8.925314000E0,5.734425201E0,4.524191895E0,-5.788013763E0,9.319498271E0
8.935331000E0,6.290967865E0,4.491110687E0,-5.974525909E0,9.769406928E0
8.945348000E0,6.787036285E0,4.427043915E0,-6.040838013E0,1.010714120E1
8.955364000E0,7.007677460E0,4.509073334E0,-5.926475830E0,1.022557585E1
8.965381000E0,6.660699005E0,4.748126221E0,-5.405858459E0,9.804739646E0
8.975398000E0,6.538103943E0,4.831802216E0,-4.993915100E0,9.541085045E0
8.985415000E0,7.006929016E0,4.745581512E0,-4.954097900E0,9.806155421E0
8.995432000E0,7.338788910E0,4.650529175E0,-5.108277283E0,1.007867755E1
9.005448000E0,7.058721313E0,4.607119446E0,-5.392835541E0,1.000668633E1
9.015465000E0,6.621630249E0,4.553979950E0,-5.693260803E0,9.848753176E0
9.025482000E0,6.462511139E0,4.596192169E0,-5.831573181E0,9.843590729E0
9.035499000E0,6.575077057E0,4.718936920E0,-5.652395782E0,9.871655486E0
9.045516000E0,6.547085266E0,4.967120819E0,-5.428611145E0,9.849184417E0
9.055533000E0,6.374793549E0,5.093757477E0,-5.373675385E0,9.770401484E0
9.065549000E0,6.179000702E0,5.065915375E0,-5.758225708E0,9.848893926E0
9.075566000E0,6.312523041E0,4.961133270E0,-6.272256775E0,1.018832643E1
9.085583000E0,6.591542816E0,4.866979065E0,-6.453080750E0,1.042967752E1
9.095600000E0,6.740782471E0,4.869074707E0,-6.323001251E0,1.044635734E1
9.105617000E0,6.765181732E0,4.955145721E0,-6.239474945E0,1.045237775E1
9.115634000E0,6.748566284E0,4.976551208E0,-6.098468170E0,1.036824589E1
9.125650000E0,6.787335663E0,4.894072723E0,-5.749094696E0,1.015243631E1
9.135667000E0,6.802154846E0,4.797972565E0,-5.420977020E0,9.933621854E0
9.145684000E0,6.762337646E0,4.733905792E0,-5.081483002E0,9.693324713E0
9.155701000E0,6.643784180E0,4.735552368E0,-4.829556885E0,9.481030754E0
9.165718000E0,6.526278534E0,4.732408905E0,-4.884642334E0,9.425907716E0
9.175735000E0,6.611451416E0,4.737049255E0,-5.138215027E0,9.620404313E0
9.185751000E0,6.845265198E0,4.766537933E0,-5.339546356E0,9.903953493E0
9.195768000E0,7.008276215E0,4.790937195E0,-5.588329010E0,1.016358381E1
9.205785000E0,6.962621155E0,4.755011902E0,-5.667963409E0,1.015943112E1
9.215802000E0,6.787485352E0,4.750521240E0,-5.678441620E0,1.004400860E1
9.225819000E0,6.721772003E0,4.753664703E0,-5.562133484E0,9.935636661E0
9.235835000E0,6.713838501E0,4.764891357E0,-5.376669159E0,9.833025389E0
9.245852000E0,6.644832001E0,4.765639801E0,-5.246439972E0,9.715464344E0
9.255869000E0,6.588249664E0,4.747677155E0,-5.128036194E0,9.604281712E0
9.265886000E0,6.505621490E0,4.749922485E0,-5.026846619E0,9.494949264E0
9.275903000E0,6.514602814E0,4.750970306E0,-5.098846893E0,9.539916578E0
9.285920000E0,6.649023285E0,4.786895599E0,-5.380561066E0,9.801750737E0
9.295936000E0,6.835834808E0,4.829257507E0,-5.796546021E0,1.018087970E1
9.305953000E0,6.869365082E0,4.785698090E0,-5.908662872E0,1.024711568E1
9.315970000E0,6.720873871E0,4.786296844E0,-6.037993927E0,1.022429233E1
9.325987000E0,6.542444916E0,4.760849762E0,-6.058650970E0,1.010824057E1
9.336004000E0,6.553222504E0,4.758155365E0,-5.827531586E0,9.977218653E0
9.346021000E0,6.574478302E0,4.819078674E0,-5.627996521E0,9.905636227E0
9.356037000E0,6.420747986E0,4.866380310E0,-5.414390717E0,9.706868128E0
9.366054000E0,6.246510315E0,4.951553192E0,-5.154830475E0,9.492578541E0
9.376071000E0,6.132597198E0,5.044659576E0,-5.195994873E0,9.489768246E0
9.386088000E0,6.056255951E0,5.026996307E0,-5.286257172E0,9.481215265E0
9.396105000E0,5.976471863E0,4.863087158E0,-5.521268463E0,9.479042044E0
9.406121000E0,6.259682922E0,4.627626801E0,-5.806425476E0,9.711495091E0
9.416138000E0,6.898554382E0,4.604724426E0,-6.049370270E0,1.026588624E1
9.426155000E0,7.306306458E0,4.804409180E0,-6.166277161E0,1.069988017E1
9.436172000E0,7.156917114E0,5.079686737E0,-5.830824738E0,1.053675458E1
9.446189000E0,6.585854645E0,5.408103790E0,-5.607489166E0,1.020122555E1
9.456206000E0,6.144272919E0,5.595663757E0,-5.202281799E0,9.804451974E0
9.466222000E0,6.082301788E0,5.524561615E0,-4.870571594E0,9.551839809E0
9.476239000E0,6.451434174E0,5.184917908E0,-4.827012177E0,9.581462475E0
9.486256000E0,6.863676910E0,4.910987549E0,-5.145400085E0,9.884482863E0
9.496273000E0,7.106621704E0,4.778962097E0,-5.352419586E0,1.009905670E1
9.506290000E0,6.940916290E0,4.826712799E0,-4.991969147E0,9.818005467E0
9.516307000E0,6.468498688E0,5.001698914E0,-5.211113434E0,9.696090476E0
9.526323000E0,6.126909027E0,5.110821991E0,-5.478158112E0,9.678312453E0
9.536340000E0,6.029761047E0,5.153183899E0,-5.847889252E0,9.854498023E0
9.546357000E0,6.014043732E0,5.095853119E0,-5.792654114E0,9.782192121E0
9.556374000E0,5.882916412E0,5.024301910E0,-5.833968201E0,9.689556242E0
9.566391000E0,5.790259094E0,4.898713074E0,-5.937403107E0,9.632094570E0
9.576408000E0,5.875431976E0,4.755161591E0,-5.989045715E0,9.643699043E0
9.586424000E0,5.906417542E0,4.744384003E0,-5.773044891E0,9.524861944E0
9.596441000E0,5.729635162E0,4.866829376E0,-5.487738190E0,9.307524790E0
9.606458000E0,5.676345978E0,4.886438599E0,-5.455106049E0,9.265871132E0
9.616475000E0,5.788462830E0,4.906796265E0,-5.403164062E0,9.315424488E0
9.626492000E0,6.049669647E0,4.996459808E0,-5.637277222E0,9.661366773E0
9.636508000E0,6.054759064E0,5.040168915E0,-5.985902252E0,9.894161702E0
9.646525000E0,5.801485748E0,5.123695221E0,-6.240373077E0,9.942421523E0
9.656542000E0,5.542224884E0,5.208868103E0,-6.410269775E0,9.946864942E0
9.666559000E0,5.430108032E0,5.196443939E0,-6.399492188E0,9.871301997E0
9.676576000E0,5.348527679E0,5.164260864E0,-6.178102570E0,9.666710401E0
9.686593000E0,5.333558807E0,5.123844910E0,-5.701044617E0,9.338230343E0
9.696609000E0,5.367238770E0,5.048252106E0,-5.327870636E0,9.092761233E0
9.706626000E0,5.461692352E0,4.963079224E0,-5.337450714E0,9.107723034E0
9.716643000E0,5.622757416E0,4.895569611E0,-5.397026825E0,9.203798201E0
9.726660000E0,5.802533569E0,4.888534241E0,-5.590574341E0,9.424525681E0
9.736677000E0,6.058950348E0,4.933889923E0,-5.801336060E0,9.731888263E0
9.746694000E0,6.270310822E0,4.962181091E0,-5.934109955E0,9.957595088E0
9.756710000E0,6.362519073E0,4.927902374E0,-6.038742371E0,1.006142536E1
9.766727000E0,6.480174408E0,4.939129028E0,-6.110742645E0,1.018473522E1
9.776744000E0,6.665938110E0,4.964276733E0,-6.029611359E0,1.026815405E1
9.786761000E0,6.737639008E0,5.049000549E0,-5.460345154E0,1.003511610E1
9.796778000E0,6.462660828E0,5.193300476E0,-5.108726349E0,9.738348921E0
9.806795000E0,5.873336334E0,5.389692078E0,-4.983137512E0,9.400878674E0
9.816811000E0,5.496719513E0,5.529201965E0,-5.183870087E0,9.362612288E0
9.826828000E0,5.650000763E0,5.495222626E0,-5.516628113E0,9.620455606E0
9.836845000E0,6.046675873E0,5.424120483E0,-5.972280579E0,1.008223722E1
9.846862000E0,6.259682922E0,5.382207642E0,-6.153852997E0,1.029668374E1
9.856878625E0,6.019881592E0,5.305267639E0,-5.855822754E0,9.933554209E0
9.866894625E0,5.585335236E0,5.237308960E0,-4.992567902E0,9.140629578E0
9.876911625E0,5.481750641E0,5.085823975E0,-3.933520203E0,8.449128758E0
9.886928625E0,5.480553131E0,4.818479919E0,-3.222648468E0,7.977447869E0
9.896945625E0,5.762416992E0,4.431384888E0,-3.536246338E0,8.083789939E0
9.906962625E0,6.221362610E0,4.390370178E0,-4.669988708E0,8.932496715E0
9.916979625E0,6.469696198E0,4.818779297E0,-5.204826508E0,9.600407375E0
9.926995625E0,6.883585510E0,5.194497986E0,-5.370382233E0,1.015911237E1
9.937012625E0,7.499255219E0,5.291645966E0,-5.427413635E0,1.066288726E1
9.947029625E0,7.948920135E0,5.255271606E0,-5.303770752E0,1.090564969E1
9.957046625E0,7.797435150E0,5.179529114E0,-5.074747009E0,1.064803146E1
9.967063625E0,7.062463531E0,5.081782379E0,-4.258045349E0,9.686787573E0
9.977080625E0,6.325695648E0,5.074896698E0,-4.166735229E0,9.117602996E0
9.987096625E0,6.600224762E0,5.136867828E0,-4.602479095E0,9.546370610E0
9.997113625E0,7.180867310E0,5.201084290E0,-3.746858368E0,9.625750918E0
1.000713063E1,6.093079376E0,5.162763977E0,-3.325933685E0,8.651102996E0
1.001714762E1,5.164859619E0,4.888833618E0,-4.901856537E0,8.637399293E0
1.002716463E1,6.149661713E0,4.651277618E0,-8.388406219E0,1.139377381E1
1.003718163E1,8.454418945E0,4.249962158E0,-1.034813095E1,1.402223920E1
1.004719763E1,9.764195251E0,3.790268097E0,-9.628277893E0,1.422706492E1
1.005721463E1,8.009394379E0,3.548371124E0,-7.070846100E0,1.125780620E1
1.006723162E1,5.285359039E0,3.885170746E0,-5.228327637E0,8.388383740E0
1.007724862E1,4.478387146E0,4.434079285E0,-4.768034821E0,7.902605050E0
1.008726563E1,4.978048096E0,4.590953064E0,-4.825664978E0,8.315338559E0
1.009728163E1,5.597759399E0,4.218826904E0,-4.850662994E0,8.524220916E0
1.010729863E1,5.769003296E0,3.954177246E0,-5.639821930E0,8.984681860E0
1.011731562E1,5.914650421E0,3.935466156E0,-6.404132538E0,9.564721482E0
1.012733262E1,6.239624634E0,4.077221375E0,-6.462511139E0,9.865125439E0
1.013734963E1,6.794670410E0,4.448898468E0,-6.514303436E0,1.041135884E1
1.014736663E1,7.611970825E0,4.900060272E0,-6.374494171E0,1.107189534E1
1.015738263E1,8.083639984E0,5.313201141E0,-6.045628052E0,1.140723281E1
1.016739962E1,8.103398895E0,5.620512085E0,-5.198988647E0,1.114830537E1
1.017741662E1,8.051307220E0,5.764063568E0,-4.484823761E0,1.087021715E1
1.018743363E1,7.977660370E0,5.869594116E0,-4.727319489E0,1.097464121E1
1.019745063E1,7.617209930E0,5.817203064E0,-4.920118561E0,1.077354655E1
1.020746762E1,7.053332520E0,5.607189789E0,-5.040019226E0,1.032433391E1
1.021748363E1,6.790628815E0,5.409900055E0,-5.284909973E0,1.016414934E1
1.022750062E1,6.787485352E0,5.295837250E0,-5.671705627E0,1.030941775E1
1.023751763E1,6.806346130E0,5.259762268E0,-6.013295288E0,1.049529261E1
1.024753463E1,6.800657959E0,5.232518921E0,-5.855074310E0,1.038797854E1
1.025755162E1,6.856042786E0,5.182672577E0,-5.384602661E0,1.014196054E1
1.026756863E1,6.988367615E0,5.133724365E0,-5.289700012E0,1.015742753E1
1.027758462E1,7.149582367E0,5.040168915E0,-5.327271881E0,1.024205333E1
1.028760163E1,7.274572449E0,4.979544983E0,-5.225034485E0,1.024774404E1
1.029761863E1,7.201674042E0,4.986280975E0,-4.954846344E0,1.006367772E1
1.030763562E1,7.119345245E0,5.055586853E0,-4.574936371E0,9.857691309E0
1.031765263E1,7.034920807E0,5.128185883E0,-4.271217957E0,9.696994588E0
1.032766862E1,6.713239746E0,5.157973938E0,-4.578828278E0,9.624861112E0
1.033768563E1,6.356082458E0,5.125641174E0,-4.825066223E0,9.484368494E0
1.034770263E1,6.120173035E0,5.135071564E0,-4.900209961E0,9.372168138E0
1.035771962E1,5.908513184E0,5.122946777E0,-4.990172882E0,9.276687831E0
1.036773663E1,5.766608276E0,5.006488953E0,-4.993316345E0,9.124248504E0
1.037775363E1,5.800737305E0,4.928052063E0,-4.967120819E0,9.088813985E0
1.038776963E1,5.940546570E0,4.886737976E0,-5.148094482E0,9.255980683E0
1.039778663E1,5.929319916E0,4.790039062E0,-4.633165283E0,8.920063308E0
1.040780362E1,5.828429718E0,4.690346375E0,-4.017645264E0,8.491844061E0
1.041782063E1,6.110592957E0,4.656816101E0,-4.145030365E0,8.729636831E0
1.042783763E1,6.494544525E0,4.688101044E0,-4.425097961E0,9.150895691E0
1.043785463E1,6.588549042E0,4.846920776E0,-4.402494965E0,9.288895596E0
1.044787063E1,6.586453400E0,5.009183350E0,-4.612358551E0,9.473496589E0
1.045788762E1,6.572682037E0,5.017116852E0,-5.257217560E0,9.798466571E0
1.046790462E1,6.396348724E0,4.826712799E0,-5.534890137E0,9.738862473E0
1.047792163E1,6.314319305E0,4.648134155E0,-5.817203064E0,9.762972442E0
1.048793863E1,6.993457031E0,4.436773682E0,-6.290219421E0,1.040001261E1
1.049795562E1,7.300169220E0,4.327949982E0,-5.565726013E0,1.014893727E1
1.050797162E1,6.698869629E0,4.573738861E0,-4.887785797E0,9.470184342E0
1.051798862E1,6.560557251E0,4.954996033E0,-5.137466583E0,9.694661419E0
1.052800563E1,6.686445465E0,5.226082306E0,-5.288053436E0,9.999199887E0
1.053802263E1,6.432274017E0,5.338797913E0,-5.566175079E0,1.004286897E1
1.054803962E1,5.996679840E0,5.205574951E0,-5.603597260E0,9.718975354E0
1.055805562E1,5.791905670E0,5.045108643E0,-6.055806885E0,9.781211046E0
1.056807262E1,6.036047974E0,4.815635834E0,-5.991590424E0,9.773606265E0
1.057808963E1,6.287824402E0,4.667593689E0,-5.671855316E0,9.669183486E0
1.058810663E1,6.587351532E0,4.684059448E0,-5.271737366E0,9.650120620E0
1.059812362E1,6.815028076E0,4.918771362E0,-4.944517822E0,9.751265348E0
1.060814063E1,6.722370758E0,5.251529388E0,-5.097499695E0,9.937471140E0
1.061815662E1,6.630611572E0,5.448968811E0,-5.514233093E0,1.020112923E1
1.062817363E1,6.641838226E0,5.390290833E0,-5.808072052E0,1.033938834E1
1.063819063E1,6.554569702E0,5.225184174E0,-5.863905945E0,1.022987422E1
1.064820762E1,6.408772888E0,5.111869812E0,-5.614374847E0,9.936034814E0
1.065822463E1,6.241420898E0,5.012326813E0,-5.305267639E0,9.603365016E0
1.066824163E1,6.394253082E0,4.977898407E0,-5.249733124E0,9.655342713E0
1.067825763E1,6.521039429E0,5.009632416E0,-5.289550323E0,9.777510665E0
1.068827463E1,6.398893433E0,4.997208252E0,-5.369783478E0,9.734089689E0
1.069829162E1,6.310277710E0,4.966072998E0,-5.567671967E0,9.771410181E0
1.070830863E1,6.299799500E0,4.874164124E0,-5.840404816E0,9.877007545E0
1.071832563E1,6.352340240E0,4.713697815E0,-6.032305756E0,9.947858380E0
1.072834163E1,6.566245422E0,4.564458160E0,-6.170169067E0,1.010053680E1
1.073835863E1,6.835535431E0,4.537364502E0,-6.156996460E0,1.025772034E1
1.074837562E1,6.722221069E0,4.551734619E0,-5.635780334E0,9.882740719E0
1.075839263E1,6.178551636E0,4.722529449E0,-5.311554565E0,9.417504798E0
1.076840963E1,6.064937897E0,4.921016693E0,-5.366640015E0,9.476323234E0
1.077842662E1,6.420149231E0,4.980592804E0,-5.199737091E0,9.646858900E0
1.078844263E1,6.620881805E0,5.041665802E0,-5.167554016E0,9.795819744E0
1.079845962E1,6.701564026E0,5.049599304E0,-5.289999390E0,9.919350133E0
1.080847663E1,6.968908081E0,4.895868988E0,-5.588927765E0,1.018682122E1
1.081849363E1,6.963968353E0,4.734354858E0,-5.498216400E0,1.005690582E1
1.082851062E1,6.576573944E0,4.746030579E0,-5.247188416E0,9.659664454E0
1.083852762E1,6.289620667E0,5.057682495E0,-5.704786835E0,9.883525342E0
1.084854362E1,6.072572021E0,5.219496002E0,-6.029311981E0,1.002356585E1
1.085856104E1,5.767656097E0,5.116061096E0,-5.887556763E0,9.700683617E0
1.086857804E1,5.683531036E0,4.957391052E0,-5.594017181E0,9.389956300E0
1.087859504E1,5.873785400E0,4.892575836E0,-5.602998505E0,9.477987417E0
1.088861204E1,6.130351868E0,4.935536499E0,-5.706882477E0,9.721586401E0
1.089862904E1,6.267466736E0,4.956941986E0,-5.615422668E0,9.766544163E0
1.090864504E1,6.339766388E0,4.925207977E0,-5.342540131E0,9.643290233E0
1.091866204E1,6.501729584E0,4.835095367E0,-5.295687561E0,9.679614741E0
1.092867904E1,6.718628540E0,4.787644043E0,-5.503754883E0,9.917299166E0
1.093869604E1,6.746171265E0,4.804858246E0,-5.715414734E0,1.006297446E1
1.094871304E1,6.587950287E0,4.800217896E0,-5.780229950E0,9.992709297E0
1.095872904E1,6.546336823E0,4.826862488E0,-5.862109680E0,1.002583947E1
1.096874604E1,6.566844177E0,4.938230896E0,-5.950126648E0,1.014463277E1
1.097876304E1,6.388864288E0,5.072351990E0,-5.920488281E0,1.007960927E1
1.098878004E1,6.062692566E0,5.077740784E0,-5.840255127E0,9.830985330E0
1.099879704E1,5.794450378E0,4.990771637E0,-5.629343719E0,9.495944789E0
1.100881404E1,5.701793060E0,4.911286926E0,-5.446873169E0,9.289758376E0
1.101883004E1,5.734425201E0,4.879552917E0,-5.607189789E0,9.387984150E0
1.102884704E1,5.990692291E0,4.835245056E0,-5.834866333E0,9.659899275E0
1.103886404E1,6.331234131E0,4.754862213E0,-5.810616760E0,9.821227389E0
1.104888104E1,6.619534607E0,4.686604156E0,-5.872288513E0,1.001330462E1
1.105889804E1,6.928043060E0,4.709207153E0,-5.759572906E0,1.016597721E1
1.106891504E1,7.208709412E0,4.906945953E0,-5.567671967E0,1.034613846E1
1.107893104E1,7.211254120E0,5.038073273E0,-5.518274689E0,1.038439810E1
1.108894804E1,6.778504028E0,5.042713623E0,-5.326373749E0,9.987358753E0
1.109896504E1,6.037993927E0,5.037624207E0,-5.095553741E0,9.370149211E0
1.110898204E1,5.391937408E0,4.937033386E0,-5.025349731E0,8.871382508E0
1.111899904E1,5.154231720E0,4.861739960E0,-5.186115417E0,8.780570208E0
1.112901604E1,5.344785461E0,4.837939453E0,-5.497767334E0,9.066302192E0
1.113903204E1,5.605243835E0,4.776567078E0,-5.802982635E0,9.375977761E0
1.114904904E1,5.936804352E0,4.684658203E0,-5.843248901E0,9.556946485E0
1.115906604E1,6.669680328E0,4.434827728E0,-5.779930573E0,9.877243041E0
1.116908304E1,7.350464630E0,4.389472046E0,-5.870791626E0,1.038089541E1
1.117910004E1,7.608977051E0,4.649631042E0,-5.810467072E0,1.064317284E1
1.118911604E1,7.645052032E0,4.921765137E0,-5.383554840E0,1.056661040E1
1.119913304E1,7.072342987E0,4.947511597E0,-4.528682556E0,9.747044271E0
1.120915004E1,6.326893158E0,4.830904083E0,-4.383783875E0,9.087616429E0
1.121916704E1,6.374643860E0,4.737797699E0,-5.067861328E0,9.421572577E0
1.122918404E1,6.698719940E0,4.752916260E0,-5.860163727E0,1.008982560E1
1.123920104E1,6.596781921E0,4.812941437E0,-6.318061523E0,1.032471977E1
1.124921704E1,6.326593781E0,4.862488403E0,-6.379583588E0,1.021609853E1
1.125923404E1,6.240672455E0,4.859794006E0,-6.280040588E0,1.009962872E1
1.126925104E1,6.177653503E0,4.830904083E0,-5.957910461E0,9.848742769E0
1.127926804E1,6.085594940E0,4.816683655E0,-5.495821381E0,9.509940055E0
1.128928504E1,6.269712067E0,4.861290894E0,-5.266947327E0,9.522718766E0
1.129930204E1,6.766379242E0,4.888983307E0,-5.426814880E0,9.956724640E0
1.130931804E1,7.147786102E0,4.833448792E0,-5.546116791E0,1.025731372E1
1.131933504E1,7.158713379E0,4.882097626E0,-5.677693176E0,1.035945241E1
1.132935204E1,7.109166412E0,5.011578369E0,-5.634882202E0,1.036378610E1
1.133936904E1,7.112309875E0,5.053790588E0,-5.361700287E0,1.024078029E1
1.134938604E1,6.967560883E0,4.928501129E0,-5.353617096E0,1.007463369E1
1.135940204E1,6.773414612E0,4.725972290E0,-5.256918182E0,9.790257829E0
1.136941904E1,6.661896515E0,4.734504547E0,-5.157973938E0,9.664424123E0
1.137943604E1,6.453679504E0,4.859344940E0,-5.466332703E0,9.754178879E0
1.138945304E1,6.235583038E0,4.829856262E0,-5.768853607E0,9.771882075E0
1.139947004E1,6.202501831E0,4.691693573E0,-5.849835205E0,9.731576926E0
1.140948704E1,6.359076233E0,4.628075867E0,-5.740412750E0,9.737005459E0
1.141950304E1,6.690037994E0,4.669539642E0,-5.655090179E0,9.926794738E0
1.142952004E1,6.824608154E0,4.837789764E0,-5.584437103E0,1.005810241E1
1.143953704E1,6.711443481E0,5.045707397E0,-5.578748932E0,1.008092637E1
1.144955404E1,6.781797180E0,5.158722382E0,-5.367388458E0,1.007045423E1
1.145957104E1,6.891069946E0,5.144202576E0,-5.223088531E0,1.006132789E1
1.146958804E1,6.716233521E0,4.998854828E0,-4.964127045E0,9.733390961E0
1.147960404E1,6.439758453E0,4.837640076E0,-4.802313538E0,9.377391202E0
1.148962104E1,6.282585297E0,4.730762329E0,-5.123844910E0,9.386414485E0
1.149963804E1,6.257736969E0,4.680317230E0,-5.388344879E0,9.492044136E0
1.150965504E1,6.210585022E0,4.761747894E0,-5.511538696E0,9.571973053E0
1.151967204E1,6.202801208E0,4.797373810E0,-5.770200806E0,9.735746281E0
1.152968904E1,6.391858063E0,4.772226105E0,-5.884562988E0,9.912521024E0
1.153970504E1,6.518644409E0,4.773273926E0,-5.686375122E0,9.879864925E0
1.154972204E1,6.587052155E0,4.809947662E0,-5.213508453E0,9.680161310E0
1.155973904E1,6.741381226E0,4.915777588E0,-4.955445099E0,9.703995376E0
1.156975604E1,6.876699829E0,4.989424438E0,-4.704866180E0,9.711803259E0
1.157977304E1,6.842121735E0,5.062771912E0,-4.794380035E0,9.768949236E0
1.158979004E1,6.730154572E0,5.006339264E0,-5.211412811E0,9.875081613E0
1.159980604E1,6.543941803E0,4.826712799E0,-5.392087097E0,9.756789125E0
1.160982304E1,6.246660004E0,4.731660461E0,-5.620212708E0,9.643451809E0
1.161984004E1,6.149961090E0,4.713997192E0,-5.912105713E0,9.746629412E0
1.162985704E1,6.213878174E0,4.760999451E0,-6.050717468E0,9.893966829E0
1.163987404E1,6.316115570E0,4.856051788E0,-5.984704742E0,9.964499271E0
1.164989004E1,6.502028961E0,4.894372101E0,-5.781726837E0,9.982966698E0
1.165990704E1,6.787934418E0,4.909640350E0,-5.381459198E0,9.956943564E0
1.166992404E1,6.862479401E0,4.920567627E0,-4.811444550E0,9.718827499E0
1.167994104E1,6.563101959E0,4.932692413E0,-4.682861938E0,9.451717183E0
1.168995804E1,6.279890900E0,4.865781555E0,-4.925357666E0,9.347299503E0
1.169997504E1,6.319558411E0,4.771477661E0,-5.377716980E0,9.572024733E0
1.170999104E1,6.447841644E0,4.776716766E0,-5.780379639E0,9.889614437E0
1.172000804E1,6.295159149E0,4.844076691E0,-5.956862640E0,9.928661552E0
1.173002504E1,6.091732178E0,4.942122803E0,-6.052813110E0,9.908093927E0
1.174004204E1,6.113437042E0,4.990023193E0,-6.140979767E0,9.999303798E0
1.175005904E1,6.315516815E0,4.990322571E0,-6.054160309E0,1.007183841E1
1.176007604E1,6.508764954E0,4.968318329E0,-5.773793335E0,1.001922640E1
1.177009204E1,6.506669312E0,5.004393311E0,-5.272036743E0,9.755771080E0
1.178010904E1,6.264023895E0,4.936284943E0,-4.804708557E0,9.310753391E0
1.179012604E1,6.164181519E0,4.845723267E0,-4.777614899E0,9.181708550E0
1.180014304E1,6.369554443E0,4.776866455E0,-5.052144012E0,9.429413346E0
1.181016004E1,6.327791290E0,4.791236572E0,-5.364095306E0,9.579687310E0
1.182017704E1,6.169570312E0,4.797074432E0,-5.777236176E0,9.718640789E0
1.183019304E1,6.256090393E0,4.821473694E0,-6.028114471E0,9.935966972E0
1.184021004E1,6.536756744E0,4.934039612E0,-6.184389496E0,1.026258296E1
1.185022704E1,6.697821808E0,4.983586578E0,-6.134692841E0,1.036008728E1
1.186024438E1,6.642287292E0,4.994064789E0,-5.763464813E0,1.011326803E1
1.187026137E1,6.386768646E0,5.055437164E0,-5.255870361E0,9.693937895E0
1.188027738E1,6.358178101E0,5.056484985E0,-5.089266815E0,9.586193503E0
1.189029437E1,6.450236664E0,4.982987823E0,-5.139412537E0,9.635833222E0
1.190031138E1,6.403084717E0,4.961582336E0,-5.316494293E0,9.689267503E0
1.191032838E1,6.287974091E0,4.900659027E0,-5.555098114E0,9.716696564E0
1.192034537E1,6.376589813E0,4.786745911E0,-5.763913879E0,9.838523124E0
1.193036237E1,6.708300018E0,4.647236023E0,-5.813760223E0,1.001987523E1
1.194037837E1,6.827601929E0,4.584666138E0,-5.800138550E0,1.006364342E1
1.195039538E1,6.648574219E0,4.718936920E0,-5.817951508E0,1.001601041E1
1.196041238E1,6.434219971E0,4.839885406E0,-5.641468506E0,9.831065267E0
1.197042937E1,6.312672729E0,4.869972839E0,-5.443430328E0,9.653880369E0
1.198044637E1,6.265371094E0,4.887486420E0,-5.197192383E0,9.494904271E0
1.199046338E1,6.045628052E0,4.938230896E0,-5.089416504E0,9.318685705E0
1.200047938E1,5.790708160E0,4.958887939E0,-5.188959503E0,9.222156544E0
1.201049638E1,5.896238708E0,4.893623657E0,-5.353766785E0,9.347513155E0
1.202051337E1,6.186934204E0,4.867577820E0,-5.638774109E0,9.683348704E0
1.203053037E1,6.380332031E0,4.808450775E0,-5.471422119E0,9.683299835E0
1.204054738E1,6.604715424E0,4.481680298E0,-5.471122742E0,9.676823248E0
1.205056438E1,6.859785004E0,4.317322083E0,-5.735323334E0,9.929242368E0
1.206058038E1,7.025041351E0,4.539609833E0,-5.839656372E0,1.020102201E1
1.207059738E1,7.134912872E0,4.856800232E0,-5.601501617E0,1.028942712E1
1.208061437E1,6.923552399E0,5.039121094E0,-5.263654175E0,1.005158567E1
1.209063138E1,6.546636200E0,5.107977905E0,-5.155429230E0,9.773859747E0
1.210064838E1,6.330036621E0,5.069657593E0,-5.197491760E0,9.632482148E0
1.211066438E1,6.514602814E0,4.958738251E0,-5.695057068E0,9.973104324E0
1.212068138E1,6.772067413E0,4.872517548E0,-6.124214630E0,1.034931539E1
1.213069837E1,6.671177216E0,4.804109802E0,-6.006110229E0,1.018122962E1
1.214071538E1,6.482419739E0,4.754113770E0,-5.825735321E0,9.927867618E0
1.215073238E1,6.453829193E0,4.768633575E0,-5.830974426E0,9.919276193E0
1.216074937E1,6.481671295E0,4.807552643E0,-5.726042633E0,9.895058839E0
1.217076538E1,6.361620941E0,4.874762878E0,-5.376818848E0,9.651099162E0
1.218078237E1,6.274951172E0,4.872218170E0,-5.138364716E0,9.461306150E0
1.219079938E1,6.536906433E0,4.866380310E0,-5.372178497E0,9.760794273E0
1.220081638E1,6.791676636E0,4.900958405E0,-5.691464539E0,1.012615590E1
1.221083337E1,6.857839050E0,4.907544708E0,-5.908513184E0,1.029681890E1
1.222085038E1,6.857988739E0,4.834945679E0,-5.804030457E0,1.020271919E1
1.223086637E1,6.872508545E0,4.776567078E0,-5.575904846E0,1.005672320E1
1.224088338E1,6.919510803E0,4.760550385E0,-5.324577484E0,9.944525886E0
1.225090038E1,6.935527496E0,4.853058014E0,-5.169200592E0,9.918384369E0
1.226091737E1,6.708000641E0,5.002447357E0,-5.193001099E0,9.848299984E0
1.227093438E1,6.350244598E0,4.982838135E0,-5.053042145E0,9.522999383E0
1.228095138E1,6.068829803E0,4.914131012E0,-4.789140930E0,9.160526712E0
1.229096738E1,5.969586182E0,4.904101868E0,-5.249882812E0,9.340634018E0
1.230098438E1,6.051914978E0,4.838089142E0,-5.986800385E0,9.791555560E0
1.231100137E1,6.089337158E0,4.883444824E0,-6.414311371E0,1.010304166E1
1.232101837E1,6.234535217E0,5.021457825E0,-6.281238098E0,1.017538304E1
1.233103538E1,6.613696747E0,5.082231445E0,-5.456153870E0,9.966929124E0
1.234105238E1,7.054829407E0,5.106780396E0,-4.898563385E0,9.992284384E0
1.235106838E1,7.210505676E0,5.039420471E0,-4.862937469E0,1.005163229E1
1.236108537E1,7.064110107E0,4.914879456E0,-4.802163849E0,9.854870334E0
1.237110237E1,6.751560059E0,4.818629608E0,-4.437073059E0,9.406932117E0
1.238111938E1,6.498586121E0,4.720134430E0,-4.755610657E0,9.334191091E0
1.239113638E1,6.578519897E0,4.664749603E0,-5.260660400E0,9.628673883E0
1.240115238E1,6.637796631E0,4.874164124E0,-5.743107147E0,1.003997509E1
1.241116937E1,6.570287018E0,5.001399536E0,-5.995482330E0,1.020433620E1
1.242118637E1,6.386169891E0,5.022355957E0,-6.010750580E0,1.010625290E1
1.243120338E1,6.168971558E0,4.986430664E0,-5.653742981E0,9.740919389E0
1.244122038E1,6.163133698E0,4.954996033E0,-5.431006165E0,9.593332613E0
1.245123737E1,6.192622375E0,4.962779846E0,-5.423521729E0,9.612093613E0
1.246125338E1,6.246510315E0,4.937781830E0,-5.150339813E0,9.482962654E0
1.247127037E1,6.125112762E0,4.871170349E0,-5.034929810E0,9.305687783E0
1.248128738E1,6.117778015E0,4.722828827E0,-5.562133484E0,9.522061167E0
1.249130438E1,6.561904449E0,4.620890808E0,-5.922583923E0,9.974378286E0
1.250132137E1,7.009473724E0,4.641996918E0,-5.867947540E0,1.025249558E1
1.251133838E1,7.100185089E0,4.803960114E0,-5.622458038E0,1.025196057E1
1.252135437E1,6.762936401E0,5.019062805E0,-5.367089081E0,9.986688411E0
1.253137138E1,6.424041138E0,5.049599304E0,-5.308111725E0,9.743860003E0
1.254138838E1,6.298152924E0,4.937033386E0,-5.374573517E0,9.639868744E0
1.255140537E1,6.255940704E0,4.810995483E0,-5.435047760E0,9.582390922E0
1.256142238E1,6.404581604E0,4.747677155E0,-5.314099274E0,9.581166681E0
1.257143938E1,6.399342499E0,4.811594238E0,-5.190606079E0,9.541772110E0
1.258145538E1,6.177653503E0,4.890031128E0,-5.137765961E0,9.405979285E0
1.259147238E1,6.100264435E0,4.908143463E0,-5.346731415E0,9.481067200E0
1.260148937E1,6.323001251E0,4.885390778E0,-5.675148468E0,9.800749870E0
1.261150638E1,6.618786163E0,4.874613190E0,-5.800288239E0,1.006049341E1
1.262152338E1,6.870113525E0,4.883444824E0,-5.665119324E0,1.015578998E1
1.263153938E1,7.045848083E0,4.948559418E0,-5.442232819E0,1.018577997E1
1.264155638E1,7.007827148E0,5.006938019E0,-5.270689545E0,1.009748671E1
1.265157337E1,6.824757843E0,4.978796539E0,-5.253625031E0,9.948181269E0
1.266159038E1,6.534661102E0,4.892276459E0,-5.289700012E0,9.727131689E0
1.267160738E1,6.285429382E0,4.842729492E0,-5.254822540E0,9.516922369E0
1.268162438E1,6.113886108E0,4.879852295E0,-5.289101257E0,9.442836114E0
1.269164038E1,5.931714935E0,4.933740234E0,-5.453609161E0,9.448221402E0
1.270165737E1,5.844147034E0,4.973258057E0,-5.631439362E0,9.518427367E0
1.271167437E1,5.995182953E0,4.948559418E0,-5.784720612E0,9.689863338E0
1.272169138E1,6.314768372E0,4.878804474E0,-5.669609985E0,9.788948364E0
1.273170838E1,6.570137329E0,4.885091400E0,-5.552852783E0,9.892673882E0
1.274172537E1,6.801406403E0,4.934189301E0,-5.463189240E0,1.002256403E1
1.275174137E1,6.869215393E0,4.974156189E0,-5.394482117E0,1.005130774E1
1.276175837E1,6.834487610E0,4.978197784E0,-5.166356506E0,9.908779623E0
1.277177538E1,6.930587769E0,4.986430664E0,-5.051245880E0,9.920313630E0
1.278179238E1,7.076085205E0,5.024152222E0,-5.081782379E0,1.005671912E1
1.279180937E1,6.829398193E0,4.896318054E0,-4.998106384E0,9.777304209E0
1.280182638E1,6.527625732E0,4.694238281E0,-5.251978455E0,9.603595599E0
1.281184237E1,6.523284760E0,4.573289795E0,-5.590574341E0,9.732561074E0
1.282185938E1,6.586453400E0,4.693489838E0,-5.903872833E0,1.001328766E1
1.283187638E1,6.571035461E0,4.973407745E0,-6.091732178E0,1.024804823E1
1.284189337E1,6.467750244E0,5.154680786E0,-5.891448669E0,1.015439287E1
1.285191038E1,6.353537750E0,5.178780670E0,-5.444478149E0,9.840200887E0
1.286192663E1,6.289171600E0,5.151387634E0,-5.126838684E0,9.611188733E0
1.287194262E1,6.121220856E0,5.082680511E0,-4.955744476E0,9.373493973E0
1.288195963E1,5.835016022E0,4.937482452E0,-5.043013000E0,9.157408207E0
1.289197663E1,5.949827271E0,4.827760620E0,-5.174140320E0,9.245509462E0
1.290199362E1,6.174959106E0,4.681814117E0,-5.312452698E0,9.395299732E0
1.291201063E1,6.380930786E0,4.343367920E0,-5.054539032E0,9.226564226E0
1.292202662E1,6.375991058E0,4.145329742E0,-5.304219818E0,9.272096232E0
1.293204363E1,6.549929352E0,4.404141541E0,-5.662424927E0,9.713963829E0
1.294206063E1,7.080276489E0,4.806504822E0,-5.654341736E0,1.025691885E1
1.295207762E1,7.349117432E0,5.145250397E0,-5.380860443E0,1.046120394E1
1.296209462E1,7.106771393E0,5.243595886E0,-5.368436279E0,1.033545381E1
1.297211163E1,6.864575043E0,5.153034210E0,-5.900429993E0,1.041591216E1
1.298212763E1,6.757547607E0,5.018613739E0,-5.919590149E0,1.029040723E1
1.299214463E1,6.539451141E0,4.949906616E0,-5.690566406E0,9.982411671E0
1.300216162E1,6.251000977E0,4.905898132E0,-5.626050568E0,9.736287521E0
1.301217862E1,6.139632568E0,4.800517273E0,-5.519322510E0,9.550024876E0
1.302219563E1,6.122568054E0,4.841531982E0,-5.638624420E0,9.629141024E0
1.303221263E1,6.136938171E0,4.912334747E0,-5.705834656E0,9.713371809E0
1.304222863E1,6.328689423E0,4.969066772E0,-6.049969025E0,1.006707801E1
1.305224562E1,6.614445190E0,4.959486694E0,-5.834866333E0,1.011894553E1
1.306226262E1,6.782395935E0,4.876110077E0,-5.275629272E0,9.879757503E0
1.307227963E1,7.162754974E0,5.010231171E0,-5.743855591E0,1.045941453E1
1.308229663E1,7.520361328E0,5.187312927E0,-6.227499847E0,1.105648245E1
1.309231362E1,7.602241058E0,5.181026001E0,-5.805078278E0,1.087823668E1
1.310232963E1,7.259304199E0,4.990621948E0,-6.012097778E0,1.066532346E1
1.311234662E1,6.690037994E0,4.677622833E0,-5.805826721E0,1.001720458E1
1.312236363E1,6.008954315E0,4.451742554E0,-5.139562225E0,9.074174541E0
1.313238063E1,5.422623596E0,4.459077301E0,-4.985233154E0,8.610503275E0
1.314239762E1,5.173242188E0,4.514761505E0,-4.844525757E0,8.403269363E0
1.315241463E1,5.435496826E0,4.716990967E0,-5.787564697E0,9.235287470E0
1.316243062E1,6.192472687E0,4.911436615E0,-6.311924286E0,1.011480676E1
1.317244763E1,6.736142120E0,5.121150513E0,-6.325246582E0,1.056458885E1
1.318246463E1,7.062313843E0,5.032085724E0,-5.948779449E0,1.051599451E1
1.319248162E1,7.176825714E0,4.749473419E0,-5.516927490E0,1.022256397E1
1.320249863E1,6.993007965E0,4.577930145E0,-4.923262024E0,9.700418227E0
1.321251462E1,6.547684021E0,4.614753571E0,-4.445904694E0,9.161560189E0
1.322253163E1,6.144272919E0,4.835245056E0,-4.685855713E0,9.115312842E0
1.323254863E1,5.920787659E0,5.052892456E0,-5.364244995E0,9.453177933E0
1.324256562E1,5.635930023E0,5.129533081E0,-6.002667389E0,9.700919165E0
1.325258263E1,5.663173370E0,5.004992065E0,-6.602769470E0,1.003583793E1
1.326259963E1,6.044131165E0,4.918771362E0,-6.924899597E0,1.042497327E1
1.327261563E1,6.227948914E0,5.056335297E0,-6.275549927E0,1.018510683E1
1.328263263E1,6.458319855E0,5.332810364E0,-5.765261078E0,1.016793966E1
1.329264962E1,6.851402435E0,5.464087372E0,-5.288801880E0,1.023569204E1
1.330266663E1,6.926097107E0,5.466183014E0,-4.761448517E0,1.002603460E1
1.331268363E1,6.544390869E0,5.469775543E0,-4.739593964E0,9.757625084E0
1.332270063E1,6.047574005E0,5.345084839E0,-4.685107269E0,9.332379836E0
1.333271663E1,5.459147644E0,5.269342346E0,-4.454736328E0,8.798462224E0
1.334273362E1,5.042114868E0,5.163362732E0,-4.637655945E0,8.578524914E0
1.335275062E1,5.216202850E0,4.977599030E0,-5.215604095E0,8.898752180E0
1.336276763E1,5.722001038E0,4.924609222E0,-5.530998230E0,9.358686515E0
1.337278463E1,6.201454010E0,5.032983856E0,-5.676944733E0,9.798809103E0
1.338280162E1,6.628216553E0,5.190306702E0,-5.460345154E0,1.003433643E1
1.339281762E1,6.967560883E0,5.273683319E0,-5.084476776E0,1.010992307E1
1.340283462E1,7.182364197E0,5.248984680E0,-5.064568176E0,1.023660327E1
1.341285163E1,7.343279572E0,5.184618530E0,-5.085973663E0,1.032817275E1
1.342286863E1,7.167545013E0,5.153034210E0,-4.982089691E0,1.013650239E1
1.343288562E1,6.774013367E0,5.165907440E0,-4.815935211E0,9.786066050E0
1.344290263E1,6.413413239E0,5.147196350E0,-4.901706848E0,9.573517100E0
1.345291862E1,6.269113312E0,5.074148254E0,-5.218448181E0,9.606298124E0
1.346293563E1,6.232888641E0,4.960534515E0,-5.829776917E0,9.871276634E0
1.347295263E1,6.391259308E0,4.885091400E0,-6.254294128E0,1.018962750E1
1.348296962E1,6.683002625E0,4.947661285E0,-6.445446625E0,1.052072519E1
1.349298663E1,6.712790680E0,5.034630432E0,-6.041287079E0,1.033954602E1
1.350300262E1,6.498735809E0,5.092260590E0,-5.416935425E0,9.874607558E0
1.351301963E1,6.230942688E0,5.191504211E0,-4.920717316E0,9.486296520E0
1.352303663E1,6.087241516E0,5.259612579E0,-4.853207703E0,9.395299823E0
1.353305362E1,6.130052490E0,5.184319153E0,-4.979245605E0,9.447094549E0
1.354307063E1,6.367159424E0,4.898264008E0,-5.111720123E0,9.521732617E0
1.355308763E1,6.881040802E0,4.593198395E0,-5.439987488E0,9.901497759E0
1.356310363E1,7.153025208E0,4.675976257E0,-5.843398590E0,1.035257604E1
1.357312063E1,6.878346405E0,4.983885956E0,-5.600453796E0,1.017427399E1
1.358313762E1,6.438560944E0,5.111420746E0,-4.921166382E0,9.581209090E0
1.359315463E1,6.089187469E0,5.079087982E0,-4.388573914E0,9.062831774E0
1.360317163E1,5.730982361E0,5.128185883E0,-4.410877533E0,8.865567657E0
1.361318862E1,5.653892670E0,5.157375183E0,-5.056335297E0,9.172325100E0
1.362320463E1,5.923332367E0,5.159770203E0,-5.508395233E0,9.594347967E0
1.363322162E1,6.229894867E0,5.049299927E0,-5.703589325E0,9.840627571E0
1.364323863E1,6.590794373E0,4.947661285E0,-5.785319366E0,1.006915303E1
1.365325563E1,6.909032593E0,4.932542725E0,-5.703140259E0,1.022695057E1
1.366327262E1,7.030430145E0,5.039719849E0,-5.391188965E0,1.019267593E1
1.367328962E1,7.244784393E0,5.168751526E0,-5.055287476E0,1.023517585E1
1.368330562E1,7.368127899E0,5.278772736E0,-5.030139771E0,1.036614955E1
1.369332263E1,6.918163605E0,5.378914490E0,-5.428461456E0,1.030834141E1
1.370333963E1,6.278394012E0,5.302124176E0,-5.405858459E0,9.836364056E0
1.371335662E1,5.702990570E0,5.122797089E0,-5.090164948E0,9.202006881E0
1.372337362E1,5.449118500E0,5.094206543E0,-5.271587677E0,9.134192321E0
1.373338962E1,5.588927765E0,5.185366974E0,-5.730533295E0,9.537460671E0
1.374340662E1,6.075565796E0,5.239703979E0,-5.944438477E0,9.985156300E0
1.375342363E1,6.597680054E0,5.182073822E0,-5.943540344E0,1.028148545E1
1.376344063E1,6.876999207E0,5.129832458E0,-5.586083679E0,1.023780396E1
1.377345762E1,6.767876129E0,5.190306702E0,-4.938230896E0,9.855432783E0
1.378347463E1,6.401438141E0,5.190007324E0,-4.262685699E0,9.278204334E0
1.379349163E1,6.096073151E0,5.108426971E0,-4.034410400E0,8.918217381E0
1.380350763E1,6.241570587E0,5.070106659E0,-4.318519592E0,9.127584368E0
1.381352463E1,6.635551300E0,5.098547516E0,-4.772824860E0,9.633565538E0
1.382354162E1,6.818021851E0,5.102140045E0,-4.843927002E0,9.796983403E0
1.383355863E1,7.015610962E0,4.937332764E0,-5.073100433E0,9.966564102E0
1.384357563E1,7.241341553E0,4.977898407E0,-5.296436005E0,1.026005528E1
1.385359163E1,7.469766541E0,5.306016083E0,-4.797373810E0,1.034243754E1
1.386360887E1,7.374714203E0,5.721851349E0,-3.956422577E0,1.013801125E1
1.387362587E1,7.141050110E0,5.931265869E0,-3.217109985E0,9.824678526E0
1.388364288E1,6.962920532E0,5.850433960E0,-3.046614532E0,9.591230368E0
1.389365988E1,6.987918549E0,5.591622162E0,-3.169359283E0,9.494318423E0
1.390367687E1,7.210655365E0,5.339845734E0,-3.682492218E0,9.698878914E0
1.391369287E1,7.481142883E0,5.126838684E0,-4.398603058E0,1.007966679E1
1.392370987E1,7.415429535E0,4.894671478E0,-4.725373535E0,1.006357586E1
1.393372688E1,7.050189056E0,4.712350616E0,-5.046755219E0,9.868188907E0
1.394374388E1,6.670129395E0,4.715194702E0,-5.283712463E0,9.728376258E0
1.395376087E1,6.373745728E0,4.741240540E0,-5.507197723E0,9.666086241E0
1.396377788E1,6.222709808E0,4.694837036E0,-5.740861816E0,9.680966199E0
1.397379387E1,6.245462494E0,4.733307037E0,-5.893843689E0,9.805477587E0
1.398381088E1,6.290818176E0,4.755011902E0,-5.841153259E0,9.813439912E0
1.399382788E1,6.405330048E0,4.748275909E0,-5.886658630E0,9.910959941E0
1.400384487E1,6.480024719E0,4.815037079E0,-5.872288513E0,9.982939187E0
1.401386188E1,6.530619507E0,4.908442841E0,-5.659281464E0,9.938272936E0
1.402387888E1,6.725663910E0,4.966222687E0,-5.444178772E0,9.976823408E0
1.403389488E1,6.986870728E0,4.996010742E0,-5.376818848E0,1.013344299E1
1.404391188E1,7.123835907E0,5.029541016E0,-5.079986115E0,1.009215437E1
1.405392887E1,7.094197540E0,5.044809265E0,-5.013374634E0,1.004547980E1
1.406394588E1,7.180867310E0,5.116510162E0,-5.174140320E0,1.022327049E1
1.407396288E1,7.281158752E0,5.223088531E0,-5.349725189E0,1.043625825E1
1.408397987E1,7.116650848E0,5.163662109E0,-5.282065887E0,1.025720945E1
1.409399588E1,6.960974579E0,5.131329346E0,-5.010081482E0,9.994329612E0
1.410401287E1,6.801256714E0,5.217100983E0,-4.782704315E0,9.815777917E0
1.411402988E1,6.821464691E0,5.390590210E0,-4.629572754E0,9.850065341E0
1.412404688E1,7.074438629E0,5.517675934E0,-4.521198120E0,1.004657464E1
1.413406387E1,7.224726105E0,5.539829865E0,-4.506977692E0,1.015870219E1
1.414408087E1,7.124135284E0,5.410947876E0,-4.494254150E0,1.001149244E1
1.415409687E1,7.082372131E0,5.196893005E0,-4.780309296E0,1.000095240E1
1.416411388E1,7.197482758E0,5.019362183E0,-4.839885406E0,1.002109004E1
1.417413088E1,7.039710846E0,4.992418213E0,-4.753664703E0,9.852872501E0
1.418414787E1,6.724017334E0,5.019511871E0,-4.824317780E0,9.678943670E0
1.419416487E1,6.717730408E0,5.090164948E0,-5.259163513E0,9.934610303E0
1.420418087E1,6.766379242E0,5.139562225E0,-5.375471649E0,1.005458519E1
1.421419788E1,6.729256439E0,5.211861877E0,-5.553301849E0,1.016295025E1
1.422421488E1,6.745422821E0,5.247787170E0,-5.505102081E0,1.016593076E1
1.423423188E1,6.691983948E0,5.392236786E0,-5.044210510E0,9.965085368E0
1.424424887E1,6.617888031E0,5.500910797E0,-4.309987335E0,9.624575441E0
1.425426588E1,6.749763794E0,5.428311768E0,-3.896098022E0,9.497655485E0
1.426428187E1,7.063960419E0,5.186265106E0,-3.749403076E0,9.531783987E0
1.427429888E1,7.097640381E0,5.070855103E0,-3.829935608E0,9.526724369E0
1.428431588E1,6.816824341E0,5.049748993E0,-3.895199890E0,9.334968729E0
1.429433287E1,6.755451965E0,5.053940277E0,-4.191583557E0,9.420605941E0
1.430434988E1,6.833888855E0,5.134472809E0,-4.674329681E0,9.742392205E0
1.431436688E1,6.947053528E0,5.278024292E0,-5.271138611E0,1.019333093E1
1.432438288E1,6.863676910E0,5.365442505E0,-5.447172546E0,1.027471278E1
1.433439988E1,6.804400177E0,5.326373749E0,-5.420378265E0,1.020052056E1
1.434441687E1,6.891668701E0,5.271437988E0,-5.237308960E0,1.013472057E1
1.435443388E1,6.911128235E0,5.318589935E0,-4.907245331E0,1.000660527E1
1.436445088E1,6.761289825E0,5.389243011E0,-4.495301971E0,9.745086975E0
1.437446787E1,6.472540283E0,5.442083130E0,-4.279899902E0,9.477741803E0
1.438448388E1,6.258186035E0,5.397924957E0,-4.311334534E0,9.321485491E0
1.439450087E1,6.249653778E0,5.290149078E0,-4.659809875E0,9.421129322E0
1.440451788E1,6.456972656E0,5.262456665E0,-5.169350281E0,9.803475321E0
1.441453488E1,6.629563751E0,5.310207367E0,-5.685027924E0,1.022100584E1
1.442455187E1,6.552024994E0,5.267845459E0,-5.884562988E0,1.026193495E1
1.443456888E1,6.487808533E0,5.180277557E0,-5.675597534E0,1.005680578E1
1.444458487E1,6.424639893E0,5.160668335E0,-5.482648773E0,9.897875175E0
1.445460188E1,6.391558685E0,5.167254639E0,-5.380710754E0,9.823675033E0
1.446461888E1,6.428831177E0,5.182672577E0,-5.127287750E0,9.720033180E0
1.447463587E1,6.333629150E0,5.223986664E0,-4.772675171E0,9.496490045E0
1.448465287E1,6.077661438E0,5.253774719E0,-4.786296844E0,9.351403897E0
1.449466988E1,6.021079102E0,5.199288025E0,-5.090464325E0,9.444512510E0
1.450468588E1,6.270759888E0,5.156776428E0,-5.381159821E0,9.740208094E0
1.451470288E1,6.407874756E0,5.132526855E0,-5.519023132E0,9.892588496E0
1.452471987E1,6.330785065E0,5.131179657E0,-5.488486633E0,9.825035864E0
1.453473687E1,6.224206696E0,5.152285767E0,-5.384452972E0,9.709744148E0
1.454475388E1,6.167474670E0,5.160219269E0,-5.284311218E0,9.622346479E0
1.455477088E1,6.044131165E0,5.203778687E0,-5.162614288E0,9.500706313E0
1.456478688E1,5.967789917E0,5.225932617E0,-5.121749268E0,9.442309239E0
1.457480387E1,5.999523926E0,5.150040436E0,-4.845423889E0,9.273367053E0
1.458482087E1,6.006559296E0,5.065765686E0,-4.672383728E0,9.141767130E0
1.459483788E1,6.145470428E0,5.069208527E0,-4.863685913E0,9.333762507E0
1.460485488E1,6.346951447E0,5.176086273E0,-5.179828491E0,9.690525526E0
1.461487088E1,6.549031219E0,5.288352814E0,-5.387596436E0,9.994132316E0
1.462488788E1,6.749464417E0,5.383105774E0,-5.448819122E0,1.020895330E1
1.463490487E1,6.893015900E0,5.510191498E0,-5.706583099E0,1.050908984E1
1.464492188E1,6.731950836E0,5.591173096E0,-5.568570099E0,1.037252870E1
1.465493888E1,6.238876190E0,5.576802979E0,-5.143005066E0,9.822159064E0
1.466495587E1,5.945635986E0,5.387746124E0,-4.915029144E0,9.409352107E0
1.467497188E1,5.626499634E0,5.200485535E0,-4.666695557E0,8.971097778E0
1.468498887E1,5.572911072E0,5.121000824E0,-4.790787506E0,8.957322824E0
1.469500588E1,6.044879608E0,5.076243896E0,-5.391937408E0,9.559383379E0
1.470502288E1,6.484964447E0,5.038372650E0,-5.978866882E0,1.015809096E1
1.471503987E1,6.536457367E0,5.093907166E0,-5.971681824E0,1.021440889E1
1.472505688E1,6.414011993E0,5.236410828E0,-5.382357330E0,9.875693324E0
1.473507287E1,6.049220581E0,5.298681335E0,-4.338428192E0,9.137343854E0
1.474508988E1,5.458399200E0,5.096601562E0,-3.427422638E0,8.216854341E0
1.475510688E1,5.592520294E0,4.434378662E0,-3.232378235E0,7.835066459E0
1.476512387E1,6.324198761E0,3.997736664E0,-4.384981384E0,8.672107595E0
1.477514088E1,6.999594269E0,4.305197296E0,-5.538332977E0,9.909701098E0
1.478515788E1,7.380252686E0,4.892426147E0,-6.000571747E0,1.069629958E1
1.479517388E1,7.381599884E0,5.255421295E0,-5.755231934E0,1.073453140E1
1.480519088E1,7.395371246E0,5.356910248E0,-5.426665192E0,1.062246197E1
1.481520787E1,7.654033356E0,5.326224060E0,-5.439239044E0,1.079528651E1
1.482522488E1,7.677983551E0,5.275928650E0,-5.282365265E0,1.070935280E1
1.483524188E1,7.187154236E0,5.249134369E0,-4.945715332E0,1.018178264E1
1.484525888E1,6.525230713E0,5.191504211E0,-4.913981323E0,9.678717078E0
1.485527488E1,6.189179535E0,5.176086273E0,-5.440885620E0,9.731446386E0
1.486529179E1,6.149212646E0,5.193899231E0,-5.983806610E0,1.002972317E1
1.487530879E1,6.171815643E0,5.173990631E0,-6.172713776E0,1.014711204E1
1.488532579E1,6.301895142E0,5.164709930E0,-6.319109344E0,1.031112283E1
1.489534279E1,6.587351532E0,5.185666351E0,-6.347849579E0,1.051568020E1
1.490535979E1,6.847510529E0,5.195994873E0,-5.932762756E0,1.044434953E1
1.491537579E1,6.979685669E0,5.123994598E0,-5.430108032E0,1.022044059E1
1.492539279E1,7.025789795E0,5.043162689E0,-5.164410553E0,1.007305061E1
1.493540979E1,6.948101349E0,4.973407745E0,-5.111570435E0,9.956859408E0
1.494542679E1,6.788682861E0,4.919519806E0,-5.052144012E0,9.788362950E0
1.495544379E1,6.642287292E0,4.858895874E0,-5.117258606E0,9.690984740E0
1.496546079E1,6.559509430E0,4.865931244E0,-5.333708496E0,9.754634650E0
1.497547679E1,6.357878723E0,4.878205719E0,-5.727389832E0,9.850000364E0
1.498549379E1,6.079308014E0,4.855752411E0,-6.012696533E0,9.833048205E0
1.499551079E1,6.069278870E0,4.889132996E0,-6.055208130E0,9.869412999E0
1.500552779E1,6.304739227E0,5.004542999E0,-5.776188354E0,9.907549609E0
1.501554479E1,6.518943787E0,5.160818024E0,-5.436844025E0,9.934281238E0
1.502556179E1,6.543492737E0,5.238207092E0,-5.164709930E0,9.845320686E0
1.503557779E1,6.435118103E0,5.201982422E0,-5.037923584E0,9.687726263E0
1.504559479E1,6.372099152E0,5.077142029E0,-4.949457550E0,9.533003137E0
1.505561179E1,6.360722809E0,4.962480469E0,-4.977449341E0,9.479451935E0
1.506562879E1,6.470294952E0,4.925058289E0,-5.296585693E0,9.704366848E0
1.507564579E1,6.575526123E0,4.996160431E0,-5.656287689E0,1.000963302E1
1.508566179E1,6.560407562E0,5.070855103E0,-5.773194580E0,1.010357830E1
1.509567879E1,6.559060364E0,5.089715881E0,-5.707780609E0,1.007498090E1
1.510569579E1,6.634802856E0,5.060676270E0,-5.528004456E0,1.000948982E1
1.511571279E1,6.637347565E0,5.056634674E0,-5.336552582E0,9.904682245E0
1.512572979E1,6.595285034E0,5.079087982E0,-4.997208252E0,9.709119925E0
1.513574679E1,6.560557251E0,5.148543549E0,-4.823719025E0,9.634141235E0
1.514576279E1,6.591393127E0,5.176086273E0,-4.832101593E0,9.674065240E0
1.515577979E1,6.553072815E0,5.185965729E0,-4.982688446E0,9.729552303E0
1.516579679E1,6.400839386E0,5.207371216E0,-4.995561676E0,9.645884940E0
1.517581379E1,6.161936188E0,5.206323395E0,-5.118456116E0,9.553735075E0
1.518583079E1,6.128106537E0,5.135820007E0,-5.432353363E0,9.666478156E0
1.519584779E1,6.309828644E0,5.097649384E0,-5.547763367E0,9.827392590E0
1.520586379E1,6.452032928E0,5.186714172E0,-5.423521729E0,9.896732832E0
1.521588079E1,6.647526398E0,5.351222076E0,-5.226830750E0,1.000724461E1
1.522589779E1,6.816524963E0,5.493576050E0,-5.021308136E0,1.009246877E1
1.523591479E1,6.987469482E0,5.571563873E0,-4.861290894E0,1.017345580E1
1.524593179E1,7.029981079E0,5.522615662E0,-4.826862488E0,1.015965153E1
1.525594879E1,6.771169281E0,5.361700287E0,-4.901407471E0,9.930778348E0
1.526596479E1,6.586603088E0,5.239404602E0,-4.958588562E0,9.768433925E0
1.527598179E1,6.334377594E0,5.169799347E0,-4.773872681E0,9.467894442E0
1.528599879E1,6.028413849E0,5.099445648E0,-4.710404663E0,9.194239041E0
1.529601579E1,5.977220306E0,5.079986115E0,-4.999303894E0,9.301960059E0
1.530603279E1,6.126909027E0,5.097200317E0,-5.360053711E0,9.604719730E0
1.531604979E1,6.332581329E0,5.199587402E0,-5.620063019E0,9.935914844E0
1.532606579E1,6.483317871E0,5.331313477E0,-5.643115082E0,1.011439874E1
1.533608279E1,6.443800049E0,5.414390717E0,-5.461392975E0,1.003319486E1
1.534609979E1,6.303691406E0,5.382956085E0,-5.459447021E0,9.925638687E0
1.535611679E1,6.391109619E0,5.281018066E0,-5.592071228E0,1.000033472E1
1.536613379E1,6.402935028E0,5.233267365E0,-5.271887054E0,9.807010625E0
1.537615079E1,6.074817352E0,5.182373199E0,-4.843028870E0,9.338914630E0
1.538616679E1,5.842350769E0,5.069208527E0,-5.000950470E0,9.210832926E0
1.539618379E1,5.935157776E0,5.031337280E0,-5.352120209E0,9.443815086E0
1.540620079E1,6.090684357E0,5.092110901E0,-5.505251770E0,9.660943350E0
1.541621779E1,6.124064941E0,5.209915924E0,-5.403164062E0,9.687186239E0
1.542623479E1,5.996081085E0,5.303770752E0,-5.489833832E0,9.706763007E0
1.543625179E1,5.997577972E0,5.223238220E0,-5.604345703E0,9.729432142E0
1.544626779E1,6.205046539E0,5.132526855E0,-5.653892670E0,9.839305707E0
1.545628479E1,6.485563202E0,5.131778412E0,-5.538632355E0,9.953598750E0
1.546630179E1,6.621929626E0,5.162614288E0,-5.292993164E0,9.925639269E0
1.547631879E1,6.650071106E0,5.138364716E0,-5.033582611E0,9.796080419E0
1.548633579E1,6.547684021E0,5.126239929E0,-4.829257507E0,9.616248225E0
1.549635279E1,6.411766663E0,5.131778412E0,-4.505480804E0,9.367243921E0
1.550636879E1,6.258934479E0,5.233267365E0,-4.638554077E0,9.384963082E0
1.551638579E1,6.153403931E0,5.352419586E0,-5.090763702E0,9.613982028E0
1.552640279E1,6.098617859E0,5.399272156E0,-5.603447571E0,9.886551688E0
1.553641979E1,6.054908752E0,5.346881104E0,-5.892945557E0,9.998893182E0
1.554643679E1,6.138285370E0,5.192102966E0,-5.960155792E0,1.000799368E1
1.555645279E1,6.340215454E0,5.110223236E0,-5.913901978E0,1.006414180E1
1.556646979E1,6.659950562E0,5.132077789E0,-5.820047150E0,1.022575732E1
1.557648679E1,6.851402435E0,5.145100708E0,-5.696853333E0,1.028921350E1
1.558650379E1,6.787335663E0,5.182522888E0,-5.480104065E0,1.014682263E1
1.559652079E1,6.531068573E0,5.129832458E0,-4.797972565E0,9.591171904E0
1.560653779E1,5.989943848E0,5.026547241E0,-4.182452545E0,8.867835912E0
1.561655479E1,5.580844574E0,4.991669769E0,-4.035158844E0,8.505592286E0
1.562657079E1,5.577701111E0,4.956792297E0,-4.389921112E0,8.657479248E0
1.563658779E1,5.813610535E0,4.869523773E0,-4.848567352E0,9.001051861E0
1.564660479E1,6.089786224E0,4.637955322E0,-5.047353973E0,9.169073452E0
1.565662179E1,6.649023285E0,4.359384613E0,-5.358706512E0,9.587986250E0
1.566663879E1,7.218439178E0,4.457281036E0,-6.005810852E0,1.039437263E1
1.567665479E1,7.464677124E0,4.874912567E0,-6.261928253E0,1.089485762E1
1.568667179E1,7.453001404E0,5.264252930E0,-6.004014587E0,1.092281008E1
1.569668879E1,7.589517517E0,5.494324493E0,-5.614374847E0,1.092289260E1
1.570670579E1,7.817194061E0,5.540727997E0,-5.210215302E0,1.090662795E1
1.571672279E1,7.784561920E0,5.519172821E0,-5.015170898E0,1.078019536E1
1.572673979E1,7.337441711E0,5.417234802E0,-4.935686188E0,1.037041378E1
1.573675579E1,6.522236938E0,5.223986664E0,-4.762346649E0,9.618188860E0
1.574677279E1,5.714965668E0,5.034929810E0,-4.703668671E0,8.951862920E0
1.575678979E1,5.240302734E0,4.929249573E0,-4.982987823E0,8.751482260E0
1.576680679E1,5.392536163E0,4.996459808E0,-5.617218933E0,9.251875779E0
1.577682379E1,5.908962250E0,5.139262848E0,-6.009702759E0,9.871392239E0
1.578684079E1,6.283483429E0,5.243146820E0,-6.255341949E0,1.030058520E1
1.579685679E1,6.432573395E0,5.299130402E0,-6.193969574E0,1.038383564E1
1.580687379E1,6.610403595E0,5.211712189E0,-5.608836365E0,1.011525704E1
1.581689079E1,6.970854034E0,5.122048645E0,-5.181325378E0,1.008336853E1
1.582690779E1,7.224426727E0,4.995861053E0,-4.753515015E0,9.987335691E0
1.583692479E1,7.049141235E0,4.898114319E0,-4.411176910E0,9.650927301E0
1.584694179E1,6.780150604E0,4.846322021E0,-4.290527802E0,9.373681676E0
1.585695779E1,6.755302277E0,4.848717041E0,-4.504732361E0,9.457102063E0
1.586697479E1,6.774163055E0,4.956642609E0,-4.934638367E0,9.736952648E0
1.587699179E1,6.771768036E0,5.085524597E0,-5.384303284E0,1.003544342E1
1.588700879E1,6.830146637E0,5.234464874E0,-5.579796753E0,1.025595717E1
1.589702579E1,6.868317261E0,5.367089081E0,-5.621709595E0,1.037222474E1
1.590704279E1,6.728657684E0,5.331463165E0,-5.391338654E0,1.013735006E1
1.591705879E1,6.540498962E0,5.234464874E0,-5.106031952E0,9.810673345E0
1.592707579E1,6.522386627E0,5.123096466E0,-4.921914825E0,9.644319067E0
1.593709279E1,6.602470093E0,5.085075531E0,-4.887486420E0,9.661165974E0
1.594710979E1,6.737040253E0,5.098996582E0,-5.111570435E0,9.875000244E0
1.595712679E1,6.853797455E0,5.064418488E0,-5.344186707E0,1.005898632E1
1.596714379E1,6.873256989E0,5.038222961E0,-5.377417603E0,1.007680368E1
1.597715979E1,6.922803955E0,5.057682495E0,-5.347928925E0,1.010473704E1
1.598717679E1,7.098837891E0,5.201683044E0,-5.415288849E0,1.033326469E1
1.599719379E1,7.116501160E0,5.280718689E0,-5.451513519E0,1.040430576E1
1.600721079E1,6.962920532E0,5.227130127E0,-5.231022034E0,1.015720154E1
1.601722779E1,6.763984222E0,5.130281525E0,-5.092559967E0,9.899769598E0
1.602724479E1,6.575226746E0,5.083728333E0,-4.960235138E0,9.678937604E0
1.603726079E1,6.384074249E0,5.095404053E0,-4.930896149E0,9.541136374E0
1.604727779E1,6.235882416E0,5.135071564E0,-4.908891907E0,9.452640331E0
1.605729479E1,6.185587006E0,5.183570709E0,-5.287155304E0,9.648051778E0
1.606731179E1,6.185287628E0,5.204078064E0,-5.694757690E0,9.887895463E0
1.607732879E1,6.093678131E0,5.148094482E0,-5.865402832E0,9.901451426E0
1.608734579E1,6.054759064E0,5.060227203E0,-5.675447845E0,9.719913318E0
1.609736179E1,6.143075409E0,5.151836700E0,-5.388344879E0,9.659868395E0
1.610737879E1,6.295907593E0,5.387147369E0,-4.928201752E0,9.640901498E0
1.611739579E1,6.481072540E0,5.539380798E0,-4.478536835E0,9.630489763E0
1.612741279E1,6.748566284E0,5.408552856E0,-4.072581024E0,9.559367505E0
1.613742979E1,6.959627380E0,5.166506195E0,-4.048331451E0,9.566513841E0
1.614744679E1,6.846612396E0,5.007387085E0,-3.950135651E0,9.357007982E0
1.615746279E1,6.629414062E0,4.999603271E0,-4.260590057E0,9.332619746E0
1.616747979E1,6.841672668E0,5.049000549E0,-4.722080383E0,9.726198363E0
1.617749679E1,6.912325745E0,5.256169739E0,-5.275329895E0,1.016054492E1
1.618751379E1,6.679260406E0,5.466033325E0,-5.736820221E0,1.036345242E1
1.619753079E1,6.518943787E0,5.417234802E0,-5.885161743E0,1.031882696E1
1.620754779E1,6.688391418E0,5.188809814E0,-5.688770142E0,1.019904078E1
1.621756379E1,6.959328003E0,5.085374908E0,-5.413941650E0,1.017860739E1
1.622758079E1,6.874304810E0,5.130431213E0,-4.799619141E0,9.829228604E0
1.623759779E1,6.500232697E0,5.160818024E0,-4.246369629E0,9.323021120E0
1.624761479E1,6.210435333E0,5.157225494E0,-4.326752472E0,9.158999333E0
1.625763179E1,6.158942413E0,5.134622498E0,-4.725822601E0,9.307540980E0
1.626764879E1,6.149362335E0,5.154531097E0,-5.264402618E0,9.596758979E0
1.627766479E1,6.118526459E0,5.216053162E0,-5.731880493E0,9.874109104E0
1.628768179E1,6.068680115E0,5.284161530E0,-6.003715210E0,1.003971303E1
1.629769879E1,6.019881592E0,5.358856201E0,-6.165229340E0,1.014723445E1
1.630771579E1,6.021977234E0,5.408552856E0,-6.115832062E0,1.014495222E1
1.631773279E1,5.934109955E0,5.367687836E0,-5.687422943E0,9.816950310E0
1.632774979E1,5.701643372E0,5.336103516E0,-5.141358490E0,9.349668710E0
1.633776579E1,5.522765350E0,5.293891296E0,-4.915927277E0,9.093545137E0
1.634778279E1,5.583988037E0,5.228327637E0,-5.019511871E0,9.149417014E0
1.635779979E1,5.754034424E0,5.195695496E0,-5.326373749E0,9.406084262E0
1.636781679E1,5.849386139E0,5.154830475E0,-5.476212158E0,9.527669968E0
1.637783379E1,6.038892059E0,5.135820007E0,-5.570665741E0,9.689023751E0
1.638785079E1,6.296656036E0,5.154680786E0,-5.629792786E0,9.895108795E0
1.639786679E1,6.446793823E0,5.217400360E0,-5.656886444E0,1.003906277E1
1.640788379E1,6.613846436E0,5.257516937E0,-5.571114807E0,1.012036408E1
1.641790079E1,6.677913208E0,5.253625031E0,-5.337151337E0,1.003395661E1
1.642791779E1,6.476432190E0,5.304369507E0,-5.177433472E0,9.843085244E0
1.643793479E1,6.168522491E0,5.302423553E0,-4.907544708E0,9.500018965E0
1.644795179E1,6.012097778E0,5.323529663E0,-4.997807007E0,9.458507422E0
1.645796779E1,6.061195679E0,5.286257172E0,-5.166506195E0,9.559047767E0
1.646798479E1,6.121520233E0,5.209616547E0,-5.095703430E0,9.517316217E0
1.647800179E1,6.162534943E0,5.222190399E0,-5.263354797E0,9.641110580E0
1.648801879E1,6.283333740E0,5.228926392E0,-5.549110565E0,9.880009219E0
1.649803579E1,6.386618958E0,5.286706238E0,-5.745053101E0,1.008681316E1
1.650805279E1,6.722670135E0,5.320984955E0,-5.827232208E0,1.036647529E1
1.651806879E1,7.230414276E0,5.308411102E0,-5.560187531E0,1.055337881E1
1.652808579E1,7.210206299E0,5.377567291E0,-5.296286316E0,1.043819686E1
1.653810279E1,6.634054413E0,5.427563324E0,-5.086871796E0,9.967215572E0
1.654811979E1,5.887556763E0,5.376818848E0,-4.768932953E0,9.290652672E0
1.655813679E1,5.350623322E0,5.222639465E0,-4.561913452E0,8.758777726E0
1.656815279E1,5.298381958E0,5.004243622E0,-4.840184784E0,8.748868175E0
1.657816979E1,5.707181854E0,4.806804199E0,-5.275778961E0,9.138442700E0
1.658818679E1,6.236481171E0,4.697531433E0,-5.261408844E0,9.415037014E0
1.659820379E1,6.630910950E0,4.532275085E0,-4.878056030E0,9.397123395E0
1.660822079E1,6.885381775E0,4.549489288E0,-4.960833893E0,9.628925583E0
1.661823779E1,7.128176880E0,4.834945679E0,-5.068160706E0,9.993690924E0
1.662825479E1,7.278164978E0,5.220992889E0,-5.037624207E0,1.027658065E1
1.663827079E1,7.101382599E0,5.530698853E0,-5.056634674E0,1.032413768E1
1.664828779E1,6.637646942E0,5.535339203E0,-4.830455017E0,9.901092500E0
1.665830479E1,6.337071991E0,5.288652191E0,-4.940925293E0,9.619826722E0
1.666832179E1,6.378685455E0,5.035528564E0,-5.204377441E0,9.650374118E0
1.667833879E1,6.579418030E0,4.915478210E0,-5.467380524E0,9.866251438E0
1.668835579E1,6.821315002E0,4.955744476E0,-5.580545197E0,1.011099532E1
1.669837179E1,6.873706055E0,5.088069305E0,-5.639672241E0,1.024412940E1
1.670838879E1,6.780300293E0,5.230722656E0,-5.523663483E0,1.019037732E1
1.671840579E1,6.805597687E0,5.341342621E0,-5.348677368E0,1.017125609E1
1.672842279E1,7.000642090E0,5.452711029E0,-5.150339813E0,1.025997307E1
1.673843979E1,7.058721313E0,5.430706787E0,-4.859494629E0,1.014558085E1
1.674845679E1,7.029831390E0,5.280569000E0,-4.730013885E0,9.983785339E0
1.675847279E1,6.995852051E0,5.143005066E0,-4.669539642E0,9.858856298E0
1.676848979E1,6.849306793E0,5.020559692E0,-4.657564545E0,9.685655923E0
1.677850679E1,6.668033752E0,4.983137512E0,-4.849465485E0,9.633880271E0
1.678852379E1,6.754104767E0,5.072801056E0,-5.271587677E0,9.956951260E0
1.679854079E1,6.946155396E0,5.182373199E0,-5.464536438E0,1.024535140E1
1.680855779E1,6.972949677E0,5.265151062E0,-5.392536163E0,1.026758439E1
1.681857379E1,6.949747925E0,5.372777252E0,-5.431006165E0,1.032770834E1
1.682859079E1,7.087162170E0,5.374423828E0,-5.423222351E0,1.041746801E1
1.683860779E1,7.126530304E0,5.291795654E0,-5.278173981E0,1.032713203E1
1.684862479E1,6.933581543E0,5.198389893E0,-5.026846619E0,1.001833307E1
1.685864179E1,6.732250214E0,5.070256348E0,-4.902604980E0,9.750191176E0
1.686865904E1,6.464307404E0,4.973856812E0,-4.757855988E0,9.442654044E0
1.687867504E1,6.375242615E0,4.957091675E0,-4.977449341E0,9.486383832E0
1.688869204E1,6.608158264E0,5.019362183E0,-5.384003906E0,9.891878003E0
