"Time (s)","Acceleration x (m/s^2)","Acceleration y (m/s^2)","Acceleration z (m/s^2)","Absolute acceleration (m/s^2)"
3.222541418E-3,8.045619049E0,2.770438843E0,-6.352789307E0,1.061909833E1
1.323954156E-2,7.911797333E0,3.057541809E0,-6.087241516E0,1.044028775E1
2.325554146E-2,7.731123047E0,3.390748901E0,-5.858367462E0,1.027559784E1
3.327254159E-2,7.668852539E0,3.545227661E0,-5.371579742E0,1.001168354E1
4.328954173E-2,7.630981293E0,3.605103149E0,-4.599036255E0,9.611439990E0
5.330654141E-2,7.604935455E0,3.873644714E0,-4.789589996E0,9.786743022E0
6.332354154E-2,7.279512177E0,4.180207214E0,-4.493505707E0,9.521398186E0
7.334054168E-2,6.836882629E0,4.501588898E0,-4.588857422E0,9.384288952E0
8.335754136E-2,6.966363373E0,4.560865631E0,-4.272116089E0,9.358562380E0
9.337454149E-2,7.633975067E0,4.604425049E0,-3.485352173E0,9.572146318E0
1.033915416E-1,7.673193512E0,4.846172333E0,-3.435056763E0,9.703757000E0
1.134085418E-1,6.722969513E0,4.942422180E0,-3.448079681E0,9.028571845E0
1.234255414E-1,6.055058441E0,4.913532257E0,-3.589535522E0,8.584363531E0
1.334425416E-1,6.412215729E0,5.024750977E0,-4.082310791E0,9.112074096E0
1.434595417E-1,7.054829407E0,5.184169464E0,-4.868625641E0,1.001747207E1
1.534765414E-1,7.287295990E0,5.345982971E0,-5.959557037E0,1.082591968E1
1.634935415E-1,6.825356598E0,5.467530212E0,-6.370751953E0,1.081969777E1
1.735105417E-1,6.022575989E0,5.536686401E0,-6.238277435E0,1.028797469E1
1.835275418E-1,5.415288849E0,5.538183289E0,-6.333479462E0,1.000548797E1
1.935445415E-1,4.982538757E0,5.216502228E0,-5.968837738E0,9.362938209E0
2.035615416E-1,4.707410889E0,4.674629059E0,-5.309907990E0,8.497470033E0
2.135785418E-1,4.881199493E0,4.356690216E0,-5.051994324E0,8.266166269E0
2.235955414E-1,5.716312866E0,4.382885742E0,-5.674549713E0,9.169865575E0
2.336115418E-1,6.359525299E0,4.576433258E0,-6.356830902E0,1.008943024E1
2.436285415E-1,6.048472137E0,4.838089142E0,-6.812333679E0,1.031498967E1
2.536455416E-1,5.316494293E0,5.011578369E0,-7.017107849E0,1.013019407E1
2.636625418E-1,4.867877197E0,5.181924133E0,-7.547155609E0,1.036861244E1
2.736795414E-1,4.786745911E0,5.092859344E0,-7.940387878E0,1.057827549E1
2.836965416E-1,4.880151672E0,4.716541901E0,-7.904462585E0,1.041835767E1
2.937135417E-1,5.035378876E0,4.244723053E0,-7.718249817E0,1.014613692E1
3.037305414E-1,4.644990692E0,3.692221985E0,-7.047794037E0,9.213025697E0
3.137475415E-1,3.977828064E0,3.233126678E0,-6.348298645E0,8.159480370E0
3.237645417E-1,4.027824097E0,3.033591614E0,-6.499484253E0,8.226137647E0
3.337815418E-1,4.557273102E0,2.906356201E0,-7.207811279E0,9.009338929E0
3.437985415E-1,4.983736267E0,2.964585114E0,-8.044421539E0,9.916607786E0
3.538155416E-1,5.374423828E0,3.232228546E0,-8.687633972E0,1.071478963E1
3.638325417E-1,5.586682434E0,3.484903107E0,-8.919950867E0,1.108697857E1
3.738495414E-1,5.401667175E0,3.529809723E0,-8.649463348E0,1.079123631E1
3.838665416E-1,5.053042145E0,3.388503571E0,-8.083190918E0,1.011697419E1
3.938835417E-1,4.929548950E0,3.265459442E0,-7.767048340E0,9.761696478E0
4.039005414E-1,4.711003418E0,3.199746094E0,-7.460785217E0,9.385906686E0
4.139175415E-1,4.497547302E0,3.243305511E0,-7.184759216E0,9.075666773E0
4.239345416E-1,4.436324615E0,3.430715790E0,-6.893464966E0,8.886542981E0
4.339515418E-1,4.360582123E0,3.698658600E0,-6.765481110E0,8.858131097E0
4.439685415E-1,4.283193054E0,3.890409851E0,-6.861431580E0,8.975537581E0
4.539855416E-1,4.218078461E0,4.099075928E0,-7.072492676E0,9.198628268E0
4.640015415E-1,4.366569672E0,4.292922821E0,-7.780220947E0,9.900906778E0
4.740185416E-1,4.651127930E0,4.201612701E0,-7.707472229E0,9.934368046E0
4.840355418E-1,4.679718475E0,3.947740631E0,-7.335346069E0,9.554670222E0
4.940525414E-1,4.737348633E0,3.689078522E0,-6.813980255E0,9.081965609E0
5.040695416E-1,4.719685364E0,3.521876221E0,-6.517746277E0,8.784079837E0
5.140865417E-1,4.493056641E0,3.493734741E0,-6.632258148E0,8.739598879E0
5.241035414E-1,4.280798035E0,3.526217194E0,-6.916816406E0,8.865764982E0
5.341205415E-1,4.408332825E0,3.720363464E0,-7.613018646E0,9.551573457E0
5.441375417E-1,4.718038788E0,3.895648956E0,-8.183931427E0,1.021825349E1
5.541545418E-1,4.898264008E0,3.967499542E0,-8.626111908E0,1.068381250E1
5.641708332E-1,4.852309570E0,3.946393433E0,-8.704548798E0,1.071858662E1
5.741878334E-1,4.725672913E0,3.915407867E0,-8.544830933E0,1.052029177E1
5.842048330E-1,4.883893890E0,3.894900513E0,-8.239765320E0,1.034003878E1
5.942218332E-1,5.088368683E0,3.912713470E0,-7.976013794E0,1.023804760E1
6.042388333E-1,4.908742218E0,3.951931915E0,-7.440427551E0,9.750562967E0
6.142558334E-1,4.658312988E0,4.093687134E0,-7.226372681E0,9.522532035E0
6.242728331E-1,4.453239441E0,4.187991028E0,-7.058122559E0,9.337435645E0
6.342898333E-1,4.140090637E0,4.136348419E0,-7.216193848E0,9.291026982E0
6.443068334E-1,4.387825470E0,3.908821564E0,-7.370672607E0,9.426489965E0
6.543238331E-1,4.962779846E0,3.809577942E0,-7.604336700E0,9.847233345E0
6.643408332E-1,5.069807281E0,3.826642456E0,-7.892487488E0,1.013101659E1
6.743578333E-1,4.848417664E0,4.034709778E0,-8.009244690E0,1.019480443E1
6.843748335E-1,5.106331329E0,4.262985077E0,-8.167615356E0,1.053364144E1
6.943918332E-1,5.421426086E0,4.225113831E0,-7.599846039E0,1.024700481E1
7.044078331E-1,5.359454956E0,4.009711761E0,-7.052584076E0,9.723193302E0
7.144248332E-1,5.143005066E0,3.837719421E0,-6.795867920E0,9.346786199E0
7.244418333E-1,4.921615448E0,3.827540588E0,-7.033423920E0,9.399011523E0
7.344588335E-1,4.945565643E0,3.888912964E0,-7.263645172E0,9.609516364E0
7.444758331E-1,5.017416229E0,3.908222809E0,-7.363936615E0,9.730171304E0
7.544928333E-1,5.011728058E0,3.986659698E0,-7.488777008E0,9.853560512E0
7.645098334E-1,4.952301636E0,4.185296631E0,-7.927364960E0,1.024134340E1
7.745268331E-1,4.858297119E0,4.313130798E0,-7.848479004E0,1.018846263E1
7.845438332E-1,4.931794281E0,4.382436676E0,-7.933951263E0,1.031871740E1
7.945608334E-1,5.070406036E0,4.236490173E0,-7.546556854E0,1.003032336E1
8.045778330E-1,5.139562225E0,4.067790985E0,-7.615413666E0,1.004771360E1
8.145948332E-1,5.121150513E0,3.998036041E0,-7.764503632E0,1.012412917E1
8.246118333E-1,4.884043579E0,3.997437286E0,-7.599546661E0,9.878587753E0
8.346288335E-1,4.537364502E0,4.099075928E0,-7.289092255E0,9.514250679E0
8.446458331E-1,4.256997528E0,4.266128540E0,-7.535479889E0,9.649110727E0
8.546628333E-1,4.096082153E0,4.283193054E0,-8.109386444E0,1.004419137E1
8.646798334E-1,4.061653748E0,4.118685150E0,-8.265661469E0,1.008869457E1
8.746968331E-1,4.174219666E0,3.981719971E0,-8.553063812E0,1.031664210E1
8.847138332E-1,4.113595734E0,3.850742340E0,-8.220455475E0,9.966231717E0
8.947308334E-1,3.723806305E0,3.834276581E0,-7.702233124E0,9.375116287E0
9.047478330E-1,3.419339447E0,3.911515961E0,-7.367229767E0,9.014871813E0
9.147648332E-1,3.479813690E0,3.963757324E0,-7.516918488E0,9.182839375E0
9.247818333E-1,3.897594910E0,3.985611877E0,-8.289162598E0,9.989322534E0
9.347978332E-1,4.700674896E0,4.007167053E0,-9.295968933E0,1.116103806E1
9.448148333E-1,4.896018677E0,3.899989929E0,-9.143585815E0,1.108088814E1
9.548318335E-1,4.741689606E0,3.851490784E0,-8.588090973E0,1.053911325E1
9.648488332E-1,4.968318329E0,3.888463898E0,-8.186176758E0,1.033527109E1
9.748658333E-1,4.931494904E0,3.889661407E0,-7.724087677E0,9.955432602E0
9.848828334E-1,4.507875824E0,3.976031799E0,-7.414381714E0,9.544780223E0
9.948998331E-1,4.200714569E0,4.071832581E0,-7.307204590E0,9.360612286E0
1.004916833E0,4.009562073E0,4.072730713E0,-7.188052368E0,9.183235831E0
1.014933833E0,3.694766693E0,3.980672150E0,-7.015311584E0,8.871958538E0
1.024950833E0,3.394940186E0,4.010011139E0,-7.121590576E0,8.850020369E0
1.034967833E0,3.163820801E0,4.062102814E0,-7.216343536E0,8.864877628E0
1.044984833E0,2.815794525E0,4.167932739E0,-7.088060303E0,8.691430319E0
1.055001833E0,2.759960632E0,4.453987885E0,-7.787705383E0,9.386359566E0
1.065018833E0,3.094365234E0,4.561464386E0,-8.181237030E0,9.864820976E0
1.075035833E0,3.469335480E0,4.386029205E0,-8.206833801E0,9.931045358E0
1.085052833E0,3.865711212E0,4.157753906E0,-8.434959412E0,1.016755531E1
1.095069833E0,4.316723328E0,3.958368530E0,-8.374784546E0,1.021957914E1
1.105086833E0,4.645140381E0,3.830534363E0,-7.902067566E0,9.934434784E0
1.115103833E0,4.760400696E0,3.824097748E0,-7.155120850E0,9.406428267E0
1.125120833E0,4.675527191E0,3.963907013E0,-6.456523590E0,8.902797886E0
1.135137833E0,4.491410065E0,4.208797760E0,-6.572382660E0,9.004607531E0
1.145154833E0,4.483177185E0,4.421954498E0,-7.106022949E0,9.494636455E0
1.155171833E0,4.697381744E0,4.444856873E0,-7.220684509E0,9.693318970E0
1.165188833E0,5.008584595E0,4.406536560E0,-7.278314667E0,9.873061758E0
1.175204833E0,5.518574066E0,4.363875275E0,-7.417974243E0,1.022371796E1
1.185221833E0,5.918392639E0,4.255650330E0,-7.355853424E0,1.035598912E1
1.195238833E0,5.720504150E0,4.200864258E0,-7.369475098E0,1.023135335E1
1.205255833E0,5.215903473E0,4.243974609E0,-7.456444244E0,1.004069372E1
1.215272833E0,4.935536499E0,4.299359436E0,-7.387288055E0,9.869956277E0
1.225289833E0,4.950505371E0,4.378694458E0,-7.643106079E0,1.010433269E1
1.235306833E0,4.880900116E0,4.408332825E0,-7.881560211E0,1.026526062E1
1.245323833E0,4.466711426E0,4.402195587E0,-7.944728851E0,1.012173668E1
1.255340833E0,4.043242035E0,4.403093719E0,-8.108638000E0,1.007397889E1
1.265357833E0,3.944746857E0,4.430786133E0,-8.177794189E0,1.010293083E1
1.275374833E0,4.166286163E0,4.519252167E0,-8.090675354E0,1.016073857E1
1.285391833E0,4.520449677E0,4.575385437E0,-8.070916443E0,1.032028630E1
1.295408833E0,4.740641785E0,4.444557495E0,-7.664212189E0,1.004827967E1
1.305425833E0,4.980143738E0,4.195924530E0,-7.153324585E0,9.673555031E0
1.315442833E0,5.265450439E0,3.982019348E0,-6.761140137E0,9.449574719E0
1.325459833E0,5.320236511E0,3.860472107E0,-6.320456543E0,9.119009394E0
1.335476833E0,5.249284058E0,3.924838257E0,-6.256090393E0,9.060794969E0
1.345493833E0,5.199288025E0,4.067042542E0,-6.250102844E0,9.090501447E0
1.355510833E0,4.941224670E0,4.291725311E0,-6.588249664E0,9.286530086E0
1.365527833E0,4.765490112E0,4.520749054E0,-7.063511353E0,9.645737952E0
1.375544833E0,4.914131012E0,4.712949371E0,-7.537874908E0,1.015776223E1
1.385561833E0,5.120851135E0,4.746928711E0,-7.669900360E0,1.037226205E1
1.395578833E0,5.068160706E0,4.636458435E0,-7.464976501E0,1.014440111E1
1.405595833E0,4.896467743E0,4.498894501E0,-7.149732056E0,9.763919119E0
1.415612833E0,4.949906616E0,4.384682007E0,-6.881190491E0,9.543468677E0
1.425628833E0,5.185965729E0,4.310436401E0,-6.763684845E0,9.550996555E0
1.435645833E0,5.418132935E0,4.373605042E0,-6.898404694E0,9.801661740E0
1.445662833E0,5.323230286E0,4.458927612E0,-7.082821198E0,9.918929995E0
1.455679833E0,4.924010468E0,4.555476837E0,-7.384144592E0,9.976163574E0
1.465696833E0,4.678371277E0,4.614753571E0,-7.748936005E0,1.016017311E1
1.475713833E0,4.642895050E0,4.712799683E0,-8.015681305E0,1.039317575E1
1.485730833E0,4.791685638E0,4.777016144E0,-8.416847076E0,1.079923373E1
1.495747833E0,5.053191833E0,4.630770264E0,-8.173004150E0,1.066661979E1
1.505764833E0,4.917573853E0,4.412224731E0,-7.541617126E0,1.002627790E1
1.515781833E0,4.688849487E0,4.290827179E0,-6.837631073E0,9.335400692E0
1.525798833E0,4.835394745E0,4.381538544E0,-6.388415222E0,9.131854762E0
1.535815833E0,5.127138062E0,4.552033997E0,-6.436764679E0,9.404280820E0
1.545832833E0,5.105732574E0,4.629572754E0,-6.506968689E0,9.478506767E0
1.555850166E0,5.100792847E0,4.724924469E0,-7.033423920E0,9.889997520E0
1.565867167E0,5.353168030E0,4.757556610E0,-7.455845490E0,1.033829700E1
1.575884167E0,5.562133484E0,4.666096802E0,-7.362589417E0,1.034009242E1
1.585901167E0,5.425767059E0,4.537364502E0,-7.134314117E0,1.004614666E1
1.595918166E0,5.063819733E0,4.380490723E0,-6.597081299E0,9.399598445E0
1.605935167E0,4.784650269E0,4.384981384E0,-6.399641876E0,9.114623200E0
1.615952167E0,4.758604431E0,4.548740845E0,-6.584058380E0,9.310487858E0
1.625969166E0,4.782554626E0,4.690795441E0,-6.841672668E0,9.575221957E0
1.635986167E0,4.589456177E0,4.765490112E0,-6.822811890E0,9.503881633E0
1.646003167E0,4.451293488E0,4.773872681E0,-6.725214844E0,9.371893553E0
1.656020167E0,4.498744812E0,4.791685638E0,-6.752458191E0,9.423091200E0
1.666037166E0,4.344266052E0,4.714745636E0,-6.771618347E0,9.325035602E0
1.676053166E0,3.747008057E0,4.620292053E0,-7.027436371E0,9.207172746E0
1.686070167E0,3.206781464E0,4.471202087E0,-7.475454712E0,9.282107445E0
1.696087167E0,3.133583679E0,4.361629944E0,-8.264164581E0,9.855941288E0
1.706104167E0,3.392694855E0,4.291725311E0,-8.571026459E0,1.016817482E1
1.716121166E0,3.489543457E0,4.354444885E0,-8.240064697E0,9.951721962E0
1.726138167E0,3.536845093E0,4.674629059E0,-8.110284576E0,1.000690491E1
1.736155167E0,3.602408752E0,5.040468292E0,-7.983348541E0,1.010532154E1
1.746172166E0,3.579656067E0,5.136568451E0,-8.087382202E0,1.022761086E1
1.756189167E0,3.422033844E0,4.633165283E0,-7.569459229E0,9.511742700E0
1.766206167E0,3.251837769E0,3.846700745E0,-6.868766327E0,8.517717203E0
1.776223166E0,3.312761078E0,3.323838043E0,-6.926396484E0,8.366436132E0
1.786240167E0,3.403622131E0,2.975512390E0,-7.018754425E0,8.348726327E0
1.796257167E0,3.707639923E0,2.803969116E0,-6.679410095E0,8.137773395E0
1.806274167E0,4.470453644E0,2.819237366E0,-6.480623474E0,8.362507741E0
1.816291166E0,5.383255463E0,3.026256866E0,-6.593039703E0,9.033595216E0
1.826308167E0,6.066584473E0,3.365002441E0,-6.570736084E0,9.555169349E0
1.836325167E0,6.685846710E0,3.884721680E0,-7.236850891E0,1.059073272E1
1.846342166E0,7.566315765E0,4.435276794E0,-8.501570892E0,1.221464376E1
1.856359167E0,8.256380768E0,4.498146057E0,-8.224048004E0,1.249144135E1
1.866376167E0,8.204738159E0,4.251608734E0,-7.709268494E0,1.203439761E1
1.876393166E0,8.080795898E0,3.768563232E0,-7.402855682E0,1.158894315E1
1.886410167E0,8.264613647E0,3.138523407E0,-7.398215332E0,1.152769526E1
1.896427167E0,8.351433105E0,2.470612335E0,-7.934250641E0,1.178145549E1
1.906444167E0,7.608677673E0,1.724563751E0,-6.662046204E0,1.025909137E1
1.916461166E0,6.739135895E0,1.411414948E0,-4.029171295E0,7.977610299E0
1.926477166E0,6.591093750E0,2.075284424E0,-5.620961151E0,8.907554464E0
1.936494166E0,6.517446899E0,2.113455048E0,-5.000800781E0,8.482441558E0
1.946511167E0,7.402705994E0,1.757495270E0,-3.352727966E0,8.314423039E0
1.956528167E0,9.116641846E0,1.642684021E0,-2.103276215E0,9.499228399E0
1.966545166E0,1.003737717E1,1.649270325E0,-1.737287292E0,1.031926355E1
1.976562167E0,9.491312714E0,1.486858063E0,-1.875599670E0,9.788444108E0
1.986579167E0,8.787326660E0,1.466799774E0,-2.809058533E0,9.341275140E0
1.996596166E0,8.534053345E0,1.691183167E0,-3.641178131E0,9.431243034E0
2.006613167E0,8.270601196E0,1.921404419E0,-4.496050415E0,9.607762925E0
2.016630167E0,8.264164581E0,2.165696411E0,-5.485941925E0,1.015294125E1
2.026647167E0,8.619974670E0,2.383643188E0,-6.162684631E0,1.086114175E1
2.036664166E0,9.196575623E0,2.396217041E0,-5.943091278E0,1.120888903E1
2.046681167E0,9.561816101E0,2.124232635E0,-5.634283447E0,1.129981599E1
2.056698167E0,9.136849823E0,1.613943787E0,-5.331762543E0,1.070114625E1
2.066715166E0,8.056995392E0,1.010847931E0,-4.852309570E0,9.459487113E0
2.076732167E0,6.889872437E0,6.592291260E-1,-4.979544983E0,8.526476029E0
2.086749167E0,6.114933929E0,7.191046143E-1,-5.730533295E0,8.411215147E0
2.096766166E0,5.671256561E0,1.135239258E0,-6.235283661E0,8.504744646E0
2.106783167E0,4.953349457E0,1.596130829E0,-6.351741486E0,8.211450807E0
2.116800167E0,3.861070862E0,2.210153961E0,-6.730004883E0,8.067565584E0
2.126817167E0,3.232976990E0,2.976410522E0,-7.647746429E0,8.820384644E0
2.136834166E0,3.382516022E0,3.589685211E0,-8.397387543E0,9.738756188E0
2.146851167E0,4.104913788E0,3.930376740E0,-8.947643280E0,1.059992919E1
2.156868167E0,5.192552032E0,3.792064362E0,-9.464817810E0,1.144225174E1
2.166884167E0,6.012546844E0,3.165467377E0,-8.669222260E0,1.101482264E1
2.176901167E0,6.160738678E0,2.592908020E0,-8.676557007E0,1.095264875E1
2.186918166E0,5.273533630E0,2.341880035E0,-8.069419556E0,9.920186037E0
2.196935167E0,4.567901001E0,2.559976501E0,-8.866511993E0,1.029729257E1
2.206952167E0,4.342020721E0,2.662962341E0,-9.140891418E0,1.046424428E1
2.216969166E0,4.775070190E0,2.598147125E0,-9.814490662E0,1.121944253E1
2.226986167E0,5.436095581E0,2.381697235E0,-9.967472534E0,1.160060885E1
2.237003167E0,5.574707336E0,2.395169220E0,-1.023751099E1,1.190045498E1
2.247020166E0,5.002297668E0,2.642454987E0,-9.709708557E0,1.123761499E1
2.257037167E0,4.749772797E0,2.896327057E0,-9.392967224E0,1.091681663E1
2.267054167E0,5.170248413E0,2.964884491E0,-9.182205505E0,1.094691311E1
2.277071167E0,5.788911896E0,2.664309540E0,-9.067244568E0,1.108264275E1
2.287088166E0,6.184688873E0,2.108215942E0,-8.887618103E0,1.103107912E1
2.297105167E0,6.038442993E0,1.698068848E0,-8.101602631E0,1.024608202E1
2.307122167E0,5.569019165E0,1.469494171E0,-6.781946869E0,8.897650865E0
2.317139166E0,5.426216125E0,1.501826935E0,-6.297254791E0,8.447172514E0
2.327156167E0,5.692212982E0,1.695973206E0,-6.568790131E0,8.855880393E0
2.337173167E0,6.353537750E0,1.885179749E0,-6.836134186E0,9.521243366E0
2.347190166E0,6.953789520E0,2.052232361E0,-7.347321167E0,1.032230472E1
2.357207166E0,6.990463257E0,2.340532837E0,-8.295150146E0,1.109748559E1
2.367224167E0,6.824009399E0,2.550396423E0,-8.577313385E0,1.125352972E1
2.377241167E0,6.641538849E0,2.786006470E0,-9.181007996E0,1.166888076E1
2.387258166E0,6.513255615E0,2.976560211E0,-9.911189575E0,1.222759536E1
2.397275167E0,6.775360565E0,3.009791107E0,-9.995913391E0,1.244518533E1
2.407292167E0,7.248526611E0,2.883902893E0,-9.740544434E0,1.247943267E1
2.417308167E0,6.807693329E0,2.423310699E0,-9.270821228E0,1.175437150E1
2.427325167E0,5.692512360E0,1.643432465E0,-7.822732544E0,9.813292602E0
2.437342166E0,4.976551208E0,1.100810852E0,-7.933053131E0,9.429272424E0
2.447359167E0,5.656587067E0,7.476951599E-1,-7.666008453E0,9.556344013E0
2.457376167E0,7.812404022E0,8.460406494E-1,-6.693630524E0,1.032250604E1
2.467393166E0,9.499096527E0,1.400936737E0,-6.249953156E0,1.145676102E1
2.477410167E0,9.115144958E0,1.854194183E0,-4.743635559E0,1.044155075E1
2.487427167E0,7.225923615E0,1.867815857E0,-3.386707306E0,8.195882779E0
2.497444167E0,6.328988800E0,1.673819275E0,-3.435206451E0,7.393132865E0
2.507461166E0,6.676116943E0,1.325343933E0,-2.829266510E0,7.371012343E0
2.517478167E0,6.761738892E0,1.036444702E0,-2.115850067E0,7.160457525E0
2.527495167E0,7.128476257E0,1.208287354E0,-2.520758057E0,7.656980688E0
2.537512166E0,8.069120178E0,1.670825500E0,-2.687960358E0,8.667611504E0
2.547529167E0,8.722661133E0,2.081122284E0,-2.549049225E0,9.322743113E0
2.557546333E0,8.197403412E0,2.138303375E0,-2.566113739E0,8.851819234E0
2.567563333E0,7.471712494E0,2.024839325E0,-2.868934021E0,8.255740082E0
2.577580333E0,6.952592010E0,1.919458466E0,-3.530857544E0,8.030554866E0
2.587597333E0,6.305936737E0,1.849404144E0,-4.071832581E0,7.730779675E0
2.597614333E0,6.089486847E0,1.899250488E0,-4.611011353E0,7.870859430E0
2.607631333E0,6.408772888E0,1.977088623E0,-5.182073822E0,8.475561247E0
2.617648333E0,7.055877228E0,1.947150879E0,-5.216053162E0,8.987992578E0
2.627665333E0,7.717201996E0,1.865869904E0,-5.470224609E0,9.641578419E0
2.637682333E0,8.082592163E0,1.714085541E0,-5.922434235E0,1.016570768E1
2.647699333E0,7.900570679E0,1.395547943E0,-5.949827271E0,9.988343990E0
2.657716333E0,7.129973145E0,1.065035248E0,-5.520669708E0,9.080121758E0
2.667733333E0,6.254294128E0,1.000519409E0,-5.719905396E0,8.534316133E0
2.677750333E0,5.903573456E0,1.325194244E0,-7.305108948E0,9.485406479E0
2.687766333E0,5.881868591E0,1.702260132E0,-8.697363739E0,1.063664438E1
2.697783333E0,5.745801544E0,1.993105316E0,-8.856183472E0,1.074330907E1
2.707800333E0,5.652395782E0,2.501298523E0,-9.327403564E0,1.118957236E1
2.717817333E0,6.456074524E0,3.085683289E0,-1.014620087E1,1.241562450E1
2.727834333E0,8.317753143E0,3.360811157E0,-1.044872177E1,1.377155967E1
2.737851333E0,9.941726074E0,3.321143646E0,-9.837842102E0,1.437536259E1
2.747868333E0,1.003887405E1,3.048410797E0,-8.351882172E0,1.340991187E1
2.757885333E0,8.598569183E0,2.646795959E0,-7.233557739E0,1.154405814E1
2.767902333E0,6.217620392E0,2.218536530E0,-6.472091217E0,9.244926846E0
2.777919333E0,4.353546753E0,2.111658783E0,-6.903194733E0,8.430099030E0
2.787936333E0,3.451522522E0,2.398162994E0,-7.467820587E0,8.569278720E0
2.797953333E0,3.239413605E0,2.954555969E0,-8.123457184E0,9.231129839E0
2.807970333E0,2.974614258E0,3.427422638E0,-8.634494476E0,9.754488750E0
2.817987333E0,2.792143707E0,3.635489960E0,-9.665550385E0,1.069746316E1
2.828004333E0,1.735940094E0,3.378624115E0,-9.957593079E0,1.065749731E1
2.838021333E0,1.085093536E0,2.688409424E0,-1.034783157E1,1.074628268E1
2.848038333E0,1.425635376E0,1.945953369E0,-1.052162018E1,1.079461263E1
2.858055333E0,1.841171265E0,1.582359467E0,-9.802814941E0,1.009895806E1
2.868072333E0,2.363435211E0,1.740281067E0,-8.913065186E0,9.383876341E0
2.878089333E0,3.187770996E0,2.116598511E0,-8.320148163E0,9.157878501E0
2.888106333E0,4.108805695E0,2.434687042E0,-8.218659210E0,9.505595428E0
2.898123333E0,4.956343231E0,2.515518951E0,-8.523874512E0,1.017593291E1
2.908140333E0,5.636079712E0,2.281555481E0,-8.477321320E0,1.043244299E1
2.918157333E0,6.218967590E0,1.972448273E0,-8.342152405E0,1.059044932E1
2.928174333E0,6.795119476E0,1.699416046E0,-8.054600372E0,1.067418619E1
2.938191333E0,7.328909454E0,1.727557526E0,-7.346423035E0,1.051985267E1
2.948207333E0,7.025789795E0,2.053130493E0,-5.143603821E0,8.946157126E0
2.958224333E0,6.125861206E0,2.326013031E0,-3.723506927E0,7.536644875E0
2.968241333E0,5.779481506E0,2.504142609E0,-4.883594513E0,7.970108660E0
2.978258333E0,6.847809906E0,2.548300781E0,-6.934779053E0,1.007360402E1
2.988275333E0,8.550818481E0,2.644251251E0,-9.169781342E0,1.281379925E1
2.998292333E0,9.214987335E0,2.856809235E0,-1.129416367E1,1.485380367E1
3.008309333E0,8.502019958E0,3.009491730E0,-1.221430023E1,1.518323134E1
3.018326333E0,6.378685455E0,2.675087128E0,-9.498647461E0,1.175023501E1
3.028343333E0,3.942351837E0,2.021097107E0,-5.065166931E0,6.729256093E0
3.038360333E0,3.480562134E0,1.609004059E0,-4.219874725E0,5.701802305E0
3.048377333E0,5.646408234E0,1.208287354E0,-4.942721558E0,7.600814474E0
3.058394333E0,8.650960236E0,8.511300659E-1,-5.201832733E0,1.013028130E1
3.068411333E0,1.050335815E1,1.002465363E0,-6.003715210E0,1.213960731E1
3.078428333E0,1.041968216E1,1.215472412E0,-5.305567017E0,1.175568760E1
3.088445333E0,9.845775604E0,1.431024170E0,-4.307143250E0,1.084152251E1
3.098462333E0,9.740993500E0,1.564396820E0,-3.895199890E0,1.060692575E1
3.108479333E0,9.515262909E0,1.592089233E0,-4.266876984E0,1.054899121E1
3.118496333E0,8.499924316E0,1.400038605E0,-4.409230957E0,9.677300197E0
3.128513333E0,7.421866150E0,1.155746613E0,-4.244573364E0,8.627644547E0
3.138530333E0,6.420149231E0,1.070573730E0,-4.621639252E0,7.982730963E0
3.148547333E0,5.751190338E0,1.240320740E0,-5.253475342E0,7.887559129E0
3.158564333E0,5.761818237E0,1.603764954E0,-5.503754883E0,8.127848992E0
3.168581333E0,6.426585846E0,1.972298584E0,-6.146817627E0,9.109024881E0
3.178598333E0,7.913743286E0,2.140848083E0,-6.220763855E0,1.029118391E1
3.188615333E0,9.376501465E0,2.047592010E0,-5.891298981E0,1.126138608E1
3.198631333E0,1.015667908E1,1.843715973E0,-5.426216125E0,1.166195695E1
3.208648333E0,9.888586578E0,1.707349548E0,-5.328170013E0,1.136171566E1
3.218665333E0,8.707841949E0,1.532662811E0,-4.730462952E0,1.002760422E1
3.228682333E0,7.107819214E0,1.273851013E0,-3.957769775E0,8.234545038E0
3.238699333E0,5.695206757E0,1.281934204E0,-4.351451111E0,7.281061878E0
3.248716333E0,4.840035095E0,1.577419739E0,-5.454507294E0,7.460954535E0
3.258733333E0,4.437971191E0,2.002535706E0,-7.012766876E0,8.537249956E0
3.268750333E0,4.211641846E0,2.434088287E0,-8.675060120E0,9.945822284E0
3.278767333E0,4.324956207E0,2.836451569E0,-9.412426758E0,1.073985480E1
3.288784333E0,5.514083405E0,3.165617065E0,-9.904453583E0,1.176964094E1
3.298801333E0,7.574249268E0,3.284769287E0,-1.052296738E1,1.337504406E1
3.308818333E0,9.216933289E0,2.973117371E0,-1.038076309E1,1.419688447E1
3.318835333E0,9.062155151E0,2.465822296E0,-8.673862610E0,1.278431962E1
3.328852333E0,8.061785431E0,2.130220184E0,-7.311844940E0,1.109023439E1
3.338869333E0,7.116501160E0,1.692680054E0,-6.246959381E0,9.619472752E0
3.348886333E0,5.771548004E0,1.246457977E0,-5.584736481E0,8.127343072E0
3.358903333E0,5.031187592E0,1.267564087E0,-6.650669861E0,8.435103846E0
3.368920333E0,4.319866791E0,1.701511688E0,-7.222331085E0,8.585945342E0
3.378937333E0,3.406017151E0,2.530038757E0,-7.684569855E0,8.778078537E0
3.388954333E0,2.882256317E0,3.332220612E0,-8.411607971E0,9.495590784E0
3.398971333E0,2.228415985E0,3.785777435E0,-9.122330017E0,1.012496190E1
3.408988333E0,2.235002289E0,3.801794128E0,-9.904902649E0,1.084232310E1
3.419005333E0,2.958597565E0,3.400179291E0,-1.062520477E1,1.154164179E1
3.429022333E0,2.977009277E0,2.720143433E0,-1.052206924E1,1.126834973E1
3.439039333E0,2.807112579E0,2.099683685E0,-9.852212219E0,1.045727681E1
3.449056333E0,3.148253174E0,1.918710022E0,-9.004225616E0,9.729800879E0
3.459073333E0,3.466042328E0,2.222877502E0,-8.148455200E0,9.129729238E0
3.469090333E0,4.057312775E0,2.728526001E0,-7.995024261E0,9.371608935E0
3.479106333E0,5.227728882E0,3.100352783E0,-8.208630066E0,1.021386040E1
3.489123333E0,6.137387238E0,3.063080292E0,-7.920778656E0,1.047801114E1
3.499140333E0,6.711892548E0,2.655477905E0,-7.534432068E0,1.043401797E1
3.509157333E0,7.047195282E0,2.259102173E0,-7.309000854E0,1.040134594E1
3.519174333E0,6.746770020E0,2.007325745E0,-6.562802582E0,9.623857858E0
3.529191333E0,6.207142181E0,1.886676636E0,-5.988596649E0,8.829011984E0
3.539208333E0,6.465205536E0,1.969454498E0,-7.002288666E0,9.731889858E0
3.549225333E0,7.570057983E0,2.296823730E0,-9.046437836E0,1.201745458E1
3.559242291E0,8.809779968E0,2.860401764E0,-1.098191299E1,1.436650738E1
3.569259292E0,9.748927002E0,3.527863770E0,-1.163919617E1,1.558711929E1
3.579276292E0,9.516161041E0,3.912563782E0,-9.425449677E0,1.395365823E1
3.589293292E0,8.345744934E0,3.924089813E0,-7.151827698E0,1.167041468E1
3.599310291E0,7.328759766E0,3.482508087E0,-6.938820648E0,1.067641392E1
3.609327292E0,6.089486847E0,2.610271912E0,-7.905360718E0,1.031455756E1
3.619344292E0,4.966522064E0,1.566941528E0,-9.198671265E0,1.057058183E1
3.629361291E0,3.616928558E0,3.965254211E-1,-1.034423904E1,1.096552261E1
3.639378292E0,2.721939697E0,-4.837939453E-1,-1.005010071E1,1.042341290E1
3.649395292E0,3.421435089E0,-2.941383362E-1,-8.822054443E0,9.466856925E0
3.659412291E0,5.499713287E0,1.035696259E0,-7.908055115E0,9.687974436E0
3.669429292E0,7.525151367E0,2.264940033E0,-6.280938721E0,1.006022105E1
3.679446292E0,8.735833740E0,2.368524628E0,-3.808530121E0,9.819857521E0
3.689463292E0,8.727451172E0,1.518143005E0,-1.931583252E0,9.066651863E0
3.699480291E0,7.985893250E0,6.045927429E-1,-1.484313354E0,8.145134100E0
3.709497292E0,7.569459229E0,5.062472534E-1,-2.588117981E0,8.015694229E0
3.719514292E0,7.131619720E0,8.794212341E-1,-2.765648804E0,7.699493155E0
3.729531291E0,6.690936127E0,1.531016235E0,-3.266058197E0,7.601300751E0
3.739548292E0,6.688092041E0,2.135309601E0,-3.982318726E0,8.071492097E0
3.749564291E0,6.750063171E0,2.411185913E0,-4.510420532E0,8.468828945E0
3.759581292E0,6.548133087E0,2.467169495E0,-5.733377380E0,9.046357744E0
3.769598292E0,6.609206085E0,2.412832489E0,-6.917415161E0,9.866812971E0
3.779615291E0,7.125033417E0,2.178120575E0,-7.036417694E0,1.024799904E1
3.789632292E0,7.729775848E0,1.912273407E0,-7.042854309E0,1.063052309E1
3.799649292E0,7.978259125E0,1.690135345E0,-6.707401886E0,1.055928105E1
3.809666292E0,7.668253784E0,1.512754211E0,-6.266418915E0,1.001791133E1
3.819683291E0,6.610553284E0,1.370849304E0,-5.880072327E0,8.952870662E0
3.829700292E0,5.122797089E0,1.408121796E0,-6.370153198E0,8.294860383E0
3.839717292E0,4.098926239E0,1.674717407E0,-7.751031647E0,8.926610011E0
3.849734291E0,4.698429565E0,2.068548431E0,-9.339827728E0,1.065769745E1
3.859751292E0,6.796167297E0,2.418820038E0,-1.047581543E1,1.271932739E1
3.869768292E0,8.794511719E0,2.628384247E0,-1.041893372E1,1.388546074E1
3.879785291E0,9.714049530E0,2.713706818E0,-9.646390228E0,1.395635366E1
3.889802292E0,9.198521576E0,2.395618286E0,-8.504414978E0,1.275448393E1
3.899819292E0,6.781048737E0,2.068698120E0,-6.858437805E0,9.864091596E0
3.909836292E0,5.245541840E0,1.896406403E0,-6.946305084E0,8.908603749E0
3.919853291E0,4.921166382E0,2.051783295E0,-7.532935181E0,9.228911403E0
3.929870292E0,3.998335419E0,2.744991760E0,-7.879464569E0,9.252439018E0
3.939887292E0,2.885250092E0,3.488495636E0,-8.483907623E0,9.616182114E0
3.949904291E0,2.390229492E0,3.918850708E0,-9.218729553E0,1.029832814E1
3.959921292E0,2.609972534E0,4.089944916E0,-1.012674133E1,1.122900245E1
3.969938292E0,2.871329041E0,3.952680359E0,-1.072175400E1,1.178236909E1
3.979955291E0,2.653981018E0,3.560495911E0,-1.084375031E1,1.171783543E1
3.989972292E0,2.649490356E0,3.035986633E0,-1.069870193E1,1.143237670E1
3.999989292E0,3.125051422E0,2.639760590E0,-1.014934433E1,1.094273607E1
4.010006292E0,3.733685760E0,2.557431793E0,-9.150770874E0,1.020869601E1
4.020022292E0,3.958368530E0,2.739602966E0,-7.802524567E0,9.168069341E0
4.030039291E0,3.732188873E0,2.998564453E0,-6.522686005E0,8.091109645E0
4.040056292E0,3.566782837E0,3.158132629E0,-5.824687500E0,7.524807372E0
4.050073292E0,3.462449799E0,3.266956329E0,-6.233337708E0,7.843217531E0
4.060090292E0,3.962260437E0,3.185825043E0,-7.273674316E0,8.874419814E0
4.070107291E0,4.786296844E0,2.823428650E0,-7.827821960E0,9.599749136E0
4.080124292E0,5.674400024E0,2.395917664E0,-7.907606049E0,1.002344604E1
4.090141292E0,6.796466675E0,2.135908356E0,-7.890840912E0,1.063105987E1
4.100158291E0,7.700287170E0,2.161505127E0,-7.780670013E0,1.115819666E1
4.110175292E0,7.710765381E0,2.591261444E0,-7.808512115E0,1.127578822E1
4.120192292E0,6.577621765E0,2.995720367E0,-7.380851440E0,1.033036382E1
4.130209291E0,5.693260803E0,3.146456909E0,-7.423363037E0,9.870143283E0
4.140226291E0,6.701713715E0,3.140319672E0,-9.614805908E0,1.213338646E1
4.150243292E0,9.166937256E0,2.984194336E0,-1.132799332E1,1.487486427E1
4.160260292E0,1.054856415E1,2.727029114E0,-1.261307098E1,1.666728691E1
4.170277291E0,8.816366272E0,2.435435486E0,-1.248733246E1,1.547879621E1
4.180294292E0,4.162993011E0,1.540296936E0,-7.854167175E0,9.021694269E0
4.190311292E0,-3.776646423E-1,4.454736328E-1,-4.566104736E0,4.603302054E0
4.200328291E0,-6.508465576E-1,-5.763015747E-2,-6.411766663E0,6.444972786E0
4.210345292E0,3.538641357E0,2.559677124E-2,-6.885681152E0,7.741785504E0
4.220362292E0,7.006479950E0,8.762777710E-1,-6.817123718E0,9.814876454E0
4.230379292E0,7.882907410E0,1.491049347E0,-4.483775940E0,9.190631320E0
4.240396291E0,8.778644714E0,1.737287292E0,-3.358865204E0,9.558490760E0
4.250413292E0,1.039213943E1,1.555415497E0,-3.498075714E0,1.107485499E1
4.260430292E0,1.117052078E1,1.268611908E0,-3.454516296E0,1.176110512E1
4.270447291E0,1.025412643E1,1.012494507E0,-3.146307220E0,1.077364855E1
4.280464292E0,8.824898529E0,8.454418945E-1,-3.021466827E0,9.366048678E0
4.290481292E0,7.736212463E0,8.794212341E-1,-3.560944977E0,8.561699254E0
4.300497292E0,7.088958435E0,1.147513733E0,-4.058510284E0,8.248734763E0
4.310514292E0,6.570287018E0,1.474583588E0,-4.304149475E0,7.991793976E0
4.320531291E0,6.293961639E0,1.836530914E0,-4.490362244E0,7.946706991E0
4.330548292E0,6.940317535E0,2.159559174E0,-4.847369843E0,8.736629654E0
4.340565292E0,8.101003876E0,2.330952759E0,-5.327571259E0,9.972092061E0
4.350582291E0,8.734486542E0,2.256108398E0,-5.489684143E0,1.056020418E1
4.360599292E0,8.491092682E0,1.964514771E0,-5.112618256E0,1.010429803E1
4.370616292E0,7.684719543E0,1.680255890E0,-5.080584869E0,9.364321488E0
4.380633292E0,6.720873871E0,1.389410706E0,-5.180277557E0,8.598597750E0
4.390650291E0,5.771248627E0,1.115330658E0,-5.570665741E0,8.098369588E0
4.400667292E0,4.951553192E0,1.022523651E0,-6.479575653E0,8.218779367E0
4.410684292E0,4.390370178E0,1.220561829E0,-7.419471130E0,8.707104762E0
4.420701291E0,4.461472321E0,1.596280518E0,-8.696315918E0,9.903471982E0
4.430718292E0,4.893773346E0,1.981429596E0,-9.844129028E0,1.117058446E1
4.440735292E0,5.838309174E0,2.238145752E0,-1.069855225E1,1.239169765E1
4.450752291E0,7.367678833E0,2.381697235E0,-1.138562347E1,1.376908112E1
4.460769292E0,9.084907837E0,2.365680542E0,-1.144130768E1,1.479984852E1
4.470786292E0,1.021026764E1,2.188748474E0,-1.043539948E1,1.476271477E1
4.480803292E0,9.183702393E0,2.015408936E0,-7.736062775E0,1.217575172E1
4.490820291E0,6.674470367E0,2.080224152E0,-5.372328186E0,8.816904068E0
4.500837292E0,5.366490326E0,2.145488434E0,-4.048780518E0,7.056554593E0
4.510854292E0,4.939578094E0,2.426154785E0,-4.130660248E0,6.880989237E0
4.520871291E0,4.351600800E0,3.084186401E0,-5.804180145E0,7.882711617E0
4.530888292E0,3.991000671E0,3.595672760E0,-7.959248657E0,9.602426159E0
4.540905292E0,3.558849335E0,3.858226776E0,-9.788145447E0,1.110671480E1
4.550922292E0,2.902763672E0,3.945944366E0,-1.120000946E1,1.222443151E1
4.560940042E0,2.880310364E0,3.794459381E0,-1.222926910E1,1.312437170E1
4.570957042E0,3.405268707E0,3.410058746E0,-1.235485794E1,1.326148070E1
4.580973042E0,3.584146729E0,2.892884216E0,-1.118698654E1,1.209808062E1
4.590990041E0,3.439098358E0,2.508932648E0,-9.420659637E0,1.033784158E1
4.601007042E0,3.476670227E0,2.288890228E0,-7.816744995E0,8.855944708E0
4.611024042E0,3.965254211E0,2.266586609E0,-7.017107849E0,8.372601650E0
4.621041042E0,4.495002594E0,2.306553497E0,-6.530619507E0,8.256768648E0
4.631058041E0,4.940925293E0,2.385738831E0,-6.568041687E0,8.558251230E0
4.641075042E0,5.432353363E0,2.270927582E0,-6.466852112E0,8.745727607E0
4.651092042E0,5.938450928E0,1.944755859E0,-6.046825562E0,8.695480099E0
4.661109041E0,6.524781647E0,1.654210052E0,-5.659880219E0,8.794511386E0
4.671126042E0,7.181615753E0,1.599723358E0,-6.108197937E0,9.562677538E0
4.681143042E0,7.558981018E0,1.822609863E0,-6.903194733E0,1.039779776E1
4.691160041E0,7.638765106E0,2.157613220E0,-8.047415314E0,1.130340304E1
4.701177042E0,7.979606323E0,2.561024323E0,-1.023945694E1,1.323175881E1
4.711194042E0,8.735534363E0,2.863245850E0,-1.124671234E1,1.452571086E1
4.721211042E0,9.163195038E0,3.039279785E0,-1.037911652E1,1.417488711E1
4.731228041E0,8.699908447E0,3.037483521E0,-8.103997650E0,1.227149099E1
4.741245042E0,7.828720093E0,2.859653320E0,-6.675368500E0,1.067834351E1
4.751262042E0,6.680607605E0,2.478695526E0,-7.231013031E0,1.015194557E1
4.761279041E0,5.366340637E0,1.531764679E0,-7.580985260E0,9.413567463E0
4.771296042E0,4.827311554E0,4.402345276E-1,-7.552843781E0,8.974530208E0
4.781313042E0,5.804479523E0,-9.894424438E-2,-7.940687256E0,9.836477347E0
4.791330041E0,7.536827087E0,1.050814819E-1,-7.522007904E0,1.064872798E1
4.801347042E0,8.684789886E0,8.574169922E-1,-6.124514008E0,1.066163267E1
4.811364042E0,8.512348480E0,1.441502380E0,-3.467688904E0,9.303917030E0
4.821381042E0,7.797285461E0,1.582359467E0,-2.373164978E0,8.302616097E0
4.831398041E0,7.601642303E0,1.403182068E0,-2.938539276E0,8.269758080E0
4.841415042E0,8.060887299E0,1.125659180E0,-3.254831543E0,8.765782395E0
4.851432042E0,8.354127502E0,1.097068634E0,-3.209625549E0,9.016468382E0
4.861448042E0,8.046517181E0,1.327888641E0,-3.305276642E0,8.799692078E0
4.871465042E0,7.478448486E0,1.674268341E0,-3.745361481E0,8.529835805E0
4.881482041E0,6.959777069E0,1.925146637E0,-4.139192505E0,8.323316708E0
4.891499042E0,6.570436707E0,2.013612671E0,-4.637805634E0,8.290628179E0
4.901516042E0,6.356681213E0,2.051334229E0,-5.426365814E0,8.605859290E0
4.911533041E0,6.515201569E0,2.022893372E0,-6.371500397E0,9.334664771E0
4.921550042E0,6.906637573E0,1.866768036E0,-6.768325195E0,9.848689833E0
4.931567042E0,7.496111755E0,1.662143555E0,-6.530170441E0,1.007956044E1
4.941584042E0,8.230334930E0,1.553768921E0,-6.871760101E0,1.083391424E1
4.951601041E0,8.462053070E0,1.501527557E0,-7.342531128E0,1.130370251E1
4.961618042E0,8.055348816E0,1.385818176E0,-6.998097382E0,1.076022786E1
4.971635042E0,7.329059143E0,1.408570862E0,-7.396119690E0,1.050722448E1
4.981652041E0,6.810687103E0,1.514999542E0,-8.130342865E0,1.071369019E1
4.991669042E0,6.559210052E0,1.697919159E0,-8.657845917E0,1.099383745E1
5.001686042E0,6.542893982E0,2.132315826E0,-9.088949432E0,1.140022957E1
5.011703041E0,7.547904053E0,2.764451294E0,-9.805209961E0,1.267892696E1
5.021720042E0,9.260642395E0,2.997067566E0,-9.608968048E0,1.367750630E1
5.031737042E0,1.047297134E1,2.878214722E0,-8.532257080E0,1.381183042E1
5.041754042E0,1.057865158E1,2.449206848E0,-7.096891937E0,1.297198360E1
5.051771041E0,8.748706970E0,1.893113251E0,-4.984784088E0,1.024557582E1
5.061788042E0,5.617218933E0,1.479523315E0,-3.729045410E0,6.902747095E0
5.071805042E0,3.472329254E0,1.440903625E0,-4.438869324E0,5.816943749E0
5.081822041E0,2.101479950E0,1.967957611E0,-6.193520508E0,6.829990587E0
5.091839042E0,1.061592407E0,2.971171417E0,-8.542735291E0,9.106764753E0
5.101856042E0,1.262324982E0,3.824846191E0,-1.101798798E1,1.173111128E1
5.111873041E0,1.901346130E0,4.253704376E0,-1.252101242E1,1.335982298E1
5.121890042E0,2.087558899E0,4.289779358E0,-1.272174500E1,1.358686516E1
5.131907042E0,2.343825989E0,3.960314484E0,-1.209694427E1,1.294270728E1
5.141924042E0,2.695444794E0,3.319497070E0,-1.093760513E1,1.174375108E1
5.151941041E0,2.866539001E0,2.682721252E0,-9.296118622E0,1.009117736E1
5.161958042E0,3.418740692E0,2.388133850E0,-8.077353058E0,9.090357728E0
5.171975042E0,3.774700470E0,2.334545288E0,-6.981481934E0,8.272820277E0
5.181991042E0,3.707939301E0,2.462080078E0,-5.927972717E0,7.412928753E0
5.192008042E0,4.551435242E0,2.522105255E0,-5.660928040E0,7.689127645E0
5.202025041E0,6.252797241E0,2.281405792E0,-5.717809753E0,8.774715614E0
5.212042042E0,7.498955841E0,1.825603638E0,-5.721402283E0,9.607372764E0
5.222059042E0,8.231233063E0,1.298399963E0,-5.380561066E0,9.919147019E0
5.232076041E0,8.685688019E0,1.065783691E0,-5.513035583E0,1.034266081E1
5.242093042E0,9.029073944E0,1.294807434E0,-6.954687653E0,1.147032619E1
5.252110042E0,9.517208862E0,1.864373016E0,-9.120234375E0,1.331284441E1
5.262127042E0,9.784403229E0,2.599644012E0,-1.025637177E1,1.441131005E1
5.272144041E0,9.758956146E0,3.265459442E0,-1.055140823E1,1.473881495E1
5.282161042E0,9.557924194E0,3.630849609E0,-1.014081207E1,1.440045323E1
5.292178042E0,8.388705597E0,3.586541748E0,-9.189689941E0,1.294928819E1
5.302195041E0,6.046975250E0,2.959196320E0,-8.757688293E0,1.104625985E1
5.312212042E0,3.642974396E0,1.816921692E0,-8.922794952E0,9.807585669E0
5.322229042E0,1.723964996E0,5.792953491E-1,-1.055649765E1,1.071201573E1
5.332246041E0,1.453178101E0,-1.351689148E-1,-1.169413193E1,1.178485124E1
5.342263042E0,3.161425781E0,3.264710999E-1,-9.987381134E0,1.048088633E1
5.352280042E0,5.214705963E0,1.581461334E0,-6.227499847E0,8.275018585E0
5.362297042E0,7.062613220E0,2.600691833E0,-3.666625214E0,8.371872190E0
5.372314041E0,8.749156036E0,2.411036224E0,-2.211351471E0,9.340819148E0
5.382331042E0,1.040471329E1,1.447489929E0,-1.785636749E0,1.065559873E1
5.392348042E0,1.152543274E1,5.867797852E-1,-1.783840485E0,1.167741398E1
5.402365041E0,1.119956039E1,2.627037048E-1,-1.883982239E0,1.135995402E1
5.412382042E0,9.831555176E0,4.587959290E-1,-2.268532562E0,1.010030746E1
5.422399042E0,8.554261322E0,9.488768005E-1,-2.905757446E0,9.084006841E0
5.432416041E0,7.880362701E0,1.439257050E0,-4.007316742E0,8.957129263E0
5.442433042E0,7.290289764E0,1.702709198E0,-4.776866455E0,8.880652937E0
5.452450042E0,6.537804565E0,1.793570251E0,-5.424719238E0,8.682589567E0
5.462467042E0,5.986501007E0,1.835034027E0,-5.924978943E0,8.620378162E0
5.472484041E0,6.108796692E0,1.934127960E0,-6.616989899E0,9.211015325E0
5.482501042E0,6.722670135E0,1.970202942E0,-7.179819489E0,1.003124126E1
5.492518042E0,7.443720703E0,1.901645508E0,-7.265441437E0,1.057411333E1
5.502534042E0,8.005652161E0,1.651665344E0,-6.631509705E0,1.052593872E1
5.512551042E0,8.109386444E0,1.372944946E0,-5.921386414E0,1.013459143E1
5.522568041E0,7.713759155E0,1.204545135E0,-5.948629761E0,9.815253706E0
5.532585042E0,6.856042786E0,1.114282837E0,-5.946833496E0,9.143947591E0
5.542602042E0,5.681884460E0,1.240470428E0,-6.546187134E0,8.756434428E0
5.552619041E0,4.852908325E0,1.543739777E0,-8.329279175E0,9.762722125E0
5.562635917E0,4.605472870E0,2.044747925E0,-9.562564545E0,1.080897845E1
5.572652916E0,5.330415344E0,2.788401489E0,-1.048150360E1,1.208513253E1
5.582669917E0,7.965834961E0,3.326682129E0,-1.150058441E1,1.438001330E1
5.592686917E0,1.096709381E1,3.172053680E0,-1.106588837E1,1.589946403E1
5.602703916E0,1.221430023E1,2.448907471E0,-8.977431335E0,1.535514739E1
5.612720917E0,1.032807266E1,1.560804291E0,-5.493576050E0,1.180188853E1
5.622737917E0,5.844446411E0,1.259331207E0,-2.954406281E0,6.668731919E0
5.632754917E0,2.933599548E0,1.431922302E0,-3.308120728E0,4.647587604E0
5.642771916E0,2.632126465E0,1.907483368E0,-4.805457001E0,5.801637658E0
5.652788917E0,2.976111145E0,2.664758606E0,-6.715634766E0,7.813957146E0
5.662805917E0,2.557132416E0,3.388952637E0,-8.774004364E0,9.747157470E0
5.672822916E0,2.030826874E0,3.829037476E0,-1.066457291E1,1.151168541E1
5.682839917E0,2.244133301E0,3.935316467E0,-1.204949295E1,1.287296121E1
5.692856917E0,2.812201996E0,3.918102264E0,-1.271441025E1,1.359839084E1
5.702873916E0,3.026406555E0,3.777544556E0,-1.230531097E1,1.322307293E1
5.712890917E0,3.094514923E0,3.531156921E0,-1.113085327E1,1.208060373E1
5.722907917E0,2.895129547E0,3.227737885E0,-9.276958466E0,1.024021608E1
5.732924917E0,2.935096436E0,2.928659821E0,-7.728278961E0,8.770298463E0
5.742941916E0,3.190016327E0,2.710713043E0,-6.885980530E0,8.058591516E0
5.752958917E0,3.530857544E0,2.582878876E0,-6.756948853E0,8.049507816E0
5.762975917E0,4.381239166E0,2.468816071E0,-7.498806152E0,9.028975752E0
5.772992916E0,5.674998779E0,2.207758942E0,-8.059839478E0,1.010152578E1
5.783009917E0,6.505022736E0,1.821861420E0,-7.704179077E0,1.024640791E1
5.793026917E0,6.730154572E0,1.516047363E0,-6.838080139E0,9.713532836E0
5.803043916E0,7.077432404E0,1.395547943E0,-5.691314850E0,9.188507398E0
5.813060916E0,7.351662140E0,1.701212311E0,-5.594466248E0,9.393567594E0
5.823077917E0,7.744295654E0,2.337539063E0,-7.626191254E0,1.111741863E1
5.833094917E0,8.732091522E0,2.957250366E0,-8.507708130E0,1.254495316E1
5.843110917E0,9.384285278E0,3.330424347E0,-7.877069550E0,1.269664370E1
5.853127917E0,9.383536835E0,3.451372833E0,-7.802374878E0,1.268226288E1
5.863144916E0,8.888216858E0,3.240611115E0,-7.998616791E0,1.238869767E1
5.873161917E0,6.913523254E0,2.461181946E0,-6.930587769E0,1.009392229E1
5.883178917E0,4.046834564E0,1.325493622E0,-6.715036011E0,7.951447161E0
5.893195916E0,1.527124329E0,9.535171509E-2,-7.345075836E0,7.502755474E0
5.903212917E0,1.625619507E0,-5.361849976E-1,-8.229736176E0,8.405872391E0
5.913229917E0,4.298610992E0,9.116043091E-2,-8.350085907E0,9.392033930E0
5.923246916E0,6.583160248E0,1.232087860E0,-5.941893768E0,8.953331274E0
5.933263917E0,7.842491455E0,1.877246246E0,-2.823578339E0,8.544081011E0
5.943280917E0,9.737999725E0,1.877845001E0,-1.784289551E0,1.007663782E1
5.953297917E0,1.268177811E1,1.446142731E0,-1.930685120E0,1.290915837E1
5.963314916E0,1.408945084E1,8.020321655E-1,-1.832189941E0,1.423069923E1
5.973331917E0,1.220786362E1,5.105882263E-1,-1.893712006E0,1.236441586E1
5.983348917E0,1.013482452E1,6.849755859E-1,-2.886447601E0,1.056008709E1
5.993365916E0,9.229806519E0,1.062191162E0,-3.986360321E0,1.010982923E1
6.003382917E0,8.623567200E0,1.484912109E0,-4.508474579E0,9.843638466E0
6.013399917E0,7.849377136E0,1.710792389E0,-4.998106384E0,9.461532617E0
6.023416916E0,7.075037384E0,1.866318970E0,-5.568420410E0,9.194922857E0
6.033433917E0,6.686146088E0,1.966460724E0,-5.900729370E0,9.131819336E0
6.043450917E0,6.819668427E0,1.998793488E0,-6.572831726E0,9.680143065E0
6.053467917E0,7.500452728E0,2.073937225E0,-6.985074463E0,1.045702023E1
6.063484916E0,8.824299774E0,2.068997498E0,-7.143295441E0,1.154017707E1
6.073501917E0,1.045560745E1,1.938618622E0,-6.894363098E0,1.267320843E1
6.083518917E0,1.140493332E1,1.627266083E0,-6.008804626E0,1.299331489E1
6.093535916E0,1.074091415E1,1.234033813E0,-4.972958679E0,1.190043673E1
6.103552917E0,8.907676392E0,9.297166443E-1,-4.852758636E0,1.018628186E1
6.113569917E0,7.166946259E0,8.728349304E-1,-5.052742767E0,8.812330507E0
6.123586916E0,5.790259094E0,1.110390930E0,-4.989125061E0,7.723434293E0
6.133603917E0,4.862638092E0,1.616338806E0,-6.499035187E0,8.276186242E0
6.143620917E0,4.980892181E0,2.172582092E0,-8.606652374E0,1.017859838E1
6.153637917E0,6.119873657E0,2.754122772E0,-9.554631042E0,1.167600189E1
6.163654916E0,7.669900360E0,3.446882172E0,-1.052221893E1,1.346942684E1
6.173671917E0,9.119485931E0,3.617377625E0,-1.055110886E1,1.440750994E1
6.183688917E0,9.770931244E0,3.243155823E0,-9.643396454E0,1.410617780E1
6.193704917E0,9.179511108E0,2.444267120E0,-7.731871490E0,1.224825305E1
6.203721917E0,7.221283264E0,1.653611298E0,-5.079387360E0,8.982290257E0
6.213738916E0,4.699776764E0,1.296004944E0,-3.694617004E0,6.117002963E0
6.223755917E0,3.486399994E0,1.298998718E0,-4.505780182E0,5.843324194E0
6.233772917E0,3.255879364E0,1.767823792E0,-5.647006989E0,6.753861068E0
6.243789916E0,3.024011536E0,2.526895294E0,-6.618037720E0,7.702484590E0
6.253806917E0,2.881657562E0,3.246299286E0,-7.845784607E0,8.966534752E0
6.263823917E0,2.498604126E0,3.743116150E0,-8.942104797E0,1.001075318E1
6.273840917E0,1.903741150E0,3.995790710E0,-9.771679688E0,1.072736210E1
6.283857916E0,1.518442383E0,4.008214874E0,-1.028840515E1,1.114552530E1
6.293874917E0,1.731748810E0,3.778292999E0,-1.030711624E1,1.111355466E1
6.303891917E0,2.215692444E0,3.439996490E0,-9.763147430E0,1.058593012E1
6.313908916E0,2.476749573E0,3.170856171E0,-8.882378998E0,9.751167826E0
6.323925917E0,3.074157257E0,3.050057373E0,-8.109236755E0,9.193095973E0
6.333942917E0,4.175117798E0,2.877166901E0,-7.409891052E0,8.978651536E0
6.343959916E0,5.527705078E0,2.595303040E0,-6.993307343E0,9.284259200E0
6.353976917E0,6.815926208E0,2.088457031E0,-5.814957733E0,9.199578050E0
6.363993917E0,7.641010437E0,1.618883514E0,-4.023333435E0,8.785956764E0
6.374010917E0,8.603359222E0,1.539249115E0,-4.139342194E0,9.670637598E0
6.384027916E0,9.842781830E0,1.676513672E0,-4.981041870E0,1.115803882E1
6.394044917E0,1.039348663E1,1.926493835E0,-6.477330322E0,1.239724772E1
6.404061917E0,1.130763565E1,2.330054626E0,-8.297545166E0,1.421763111E1
6.414078916E0,1.254331604E1,2.847678223E0,-9.230704651E0,1.583192840E1
6.424095917E0,1.214709000E1,3.378773804E0,-9.814340973E0,1.597777195E1
6.434112917E0,8.848249969E0,3.235821075E0,-8.363707581E0,1.259816138E1
6.444129916E0,4.809049530E0,2.382295990E0,-7.028933258E0,8.843539694E0
6.454146917E0,2.937491455E0,1.410516815E0,-7.158713379E0,7.865468262E0
6.464163917E0,3.164269867E0,5.183720398E-1,-8.420589294E0,9.010418272E0
6.474180917E0,4.834646301E0,4.381388855E-1,-1.047267197E1,1.154307709E1
6.484197916E0,6.146218872E0,1.371597748E0,-9.734856262E0,1.159416721E1
6.494214917E0,6.174060974E0,2.492915955E0,-6.751410370E0,9.482362620E0
6.504231917E0,7.045399017E0,3.044668579E0,-4.767136688E0,9.035111857E0
6.514248916E0,9.480834503E0,2.739303589E0,-4.017345886E0,1.065500235E1
6.524265917E0,1.168874313E1,1.771416321E0,-3.240012360E0,1.225815288E1
6.534282917E0,1.189755890E1,5.951623535E-1,-2.008523254E0,1.208057497E1
6.544299916E0,1.002615051E1,-1.862127686E-1,-1.402433624E0,1.012547230E1
6.554315917E0,8.331823883E0,-1.845661926E-1,-1.783391418E0,8.522548847E0
6.564332583E0,8.190517731E0,4.213737488E-1,-2.622097321E0,8.610315377E0
6.574349583E0,8.356971588E0,1.157093811E0,-3.328628082E0,9.069597848E0
6.584366583E0,8.192014618E0,1.754501495E0,-4.098177795E0,9.326437704E0
6.594383583E0,7.940088501E0,2.185904388E0,-4.437971191E0,9.355146802E0
6.604400583E0,7.898025970E0,2.471061401E0,-5.219046936E0,9.783834095E0
6.614417583E0,8.118517456E0,2.488874359E0,-5.792354736E0,1.027891992E1
6.624434583E0,8.379275208E0,2.355801086E0,-6.260281677E0,1.072162201E1
6.634451583E0,8.132139130E0,2.089504852E0,-6.358327789E0,1.053214364E1
6.644468583E0,7.597750397E0,1.849404144E0,-6.144721985E0,9.945034693E0
6.654485583E0,6.869215393E0,1.713037720E0,-6.304888916E0,9.480097182E0
6.664502583E0,6.288273468E0,1.683848419E0,-6.898404694E0,9.485025884E0
6.674519583E0,5.806724854E0,1.659898224E0,-7.008276215E0,9.251445894E0
6.684536583E0,5.303770752E0,1.769620056E0,-7.751181335E0,9.557319259E0
6.694553583E0,5.425916748E0,2.087858276E0,-9.257199554E0,1.093139828E1
6.704570583E0,6.351142731E0,2.498903503E0,-1.038495438E1,1.242693889E1
6.714587583E0,7.879763947E0,2.970422974E0,-1.143262573E1,1.419926138E1
6.724604583E0,1.017374359E1,3.068768463E0,-1.162677200E1,1.575132457E1
6.734621583E0,1.220741455E1,2.704276428E0,-1.031669632E1,1.621012967E1
6.744638583E0,1.234692444E1,1.991758118E0,-7.255112915E0,1.445857209E1
6.754655583E0,9.954449615E0,1.188977509E0,-3.988905029E0,1.078962919E1
6.764672583E0,5.649102631E0,9.050180054E-1,-1.944306793E0,6.042495099E0
6.774689583E0,3.339854736E0,9.575587463E-1,-2.176174622E0,4.099668815E0
6.784706583E0,3.467838593E0,1.650767212E0,-4.158202972E0,5.660529026E0
6.794723583E0,3.599265289E0,2.601140900E0,-6.239624634E0,7.658561234E0
6.804740583E0,2.937491455E0,3.330124969E0,-8.010891266E0,9.159310413E0
6.814757583E0,2.630180511E0,3.688479767E0,-1.001567230E1,1.099256222E1
6.824774583E0,2.667752380E0,3.777694244E0,-1.150657196E1,1.240117232E1
6.834791583E0,2.496059418E0,3.739523621E0,-1.182481018E1,1.265071086E1
6.844808583E0,2.282453613E0,3.533402252E0,-1.116423386E1,1.193040836E1
6.854825583E0,2.291434937E0,3.324137421E0,-1.015383499E1,1.092707320E1
6.864842583E0,2.558479614E0,3.248843994E0,-8.955876160E0,9.864508250E0
6.874859583E0,2.852318573E0,3.191513214E0,-7.602540436E0,8.724683313E0
6.884875583E0,3.237467651E0,3.071462860E0,-6.866371307E0,8.189147442E0
6.894892583E0,4.005520477E0,2.879711609E0,-6.667584686E0,8.294191871E0
6.904909583E0,4.889731750E0,2.626288605E0,-6.960974579E0,8.902922864E0
6.914926583E0,5.837111664E0,2.229164429E0,-7.122039642E0,9.474412662E0
6.924943583E0,6.765630798E0,1.799408112E0,-6.866520996E0,9.806158281E0
6.934960583E0,7.487579498E0,1.532363434E0,-6.148314514E0,9.808861086E0
6.944977583E0,8.355474701E0,1.458566895E0,-5.377417603E0,1.004280812E1
6.954994583E0,8.731642456E0,1.704505463E0,-5.229225769E0,1.031948259E1
6.965011583E0,8.152796173E0,2.170785828E0,-6.220165100E0,1.048192971E1
6.975028583E0,7.933651886E0,2.817740479E0,-8.317154388E0,1.183459128E1
6.985045583E0,8.675060120E0,3.380719757E0,-1.032448013E1,1.390254740E1
6.995062583E0,9.806257782E0,3.741918640E0,-1.143487106E1,1.552162759E1
7.005079583E0,9.969717865E0,3.872596893E0,-1.207808350E1,1.613295949E1
7.015096583E0,8.747958527E0,3.380121002E0,-1.076905563E1,1.428021553E1
7.025113583E0,6.984026642E0,2.335742798E0,-9.560468903E0,1.206792808E1
7.035130583E0,5.104684753E0,8.363108826E-1,-8.507408752E0,9.956566979E0
7.045147583E0,3.950135651E0,-4.035607910E-1,-7.547754364E0,8.528483389E0
7.055164583E0,4.551884308E0,-4.825964355E-1,-7.742349701E0,8.994249772E0
7.065181583E0,5.291047211E0,1.721420288E-2,-6.359974365E0,8.273134282E0
7.075198583E0,5.626799011E0,6.005511475E-1,-3.583847351E0,6.698170693E0
7.085215583E0,6.859635315E0,1.206341400E0,-2.195035400E0,7.302604784E0
7.095232583E0,8.622818756E0,1.465153198E0,-2.302511902E0,9.044403698E0
7.105249583E0,9.879156189E0,1.409169617E0,-2.646945648E0,1.032423398E1
7.115266583E0,1.035366943E1,1.299298096E0,-2.749482422E0,1.079102868E1
7.125283583E0,1.024289978E1,1.378184052E0,-3.040477295E0,1.077315596E1
7.135300583E0,9.530830536E0,1.560804291E0,-3.678300934E0,1.033454104E1
7.145317583E0,8.903036041E0,1.766925659E0,-4.229454803E0,1.001370885E1
7.155334583E0,8.580157471E0,1.994003448E0,-5.246439972E0,1.025281836E1
7.165351583E0,7.818092194E0,1.907333679E0,-5.923182678E0,9.992225996E0
7.175368583E0,7.244185638E0,1.743274841E0,-5.906267853E0,9.507956283E0
7.185385583E0,7.879763947E0,1.758243713E0,-6.223607941E0,1.019389016E1
7.195402583E0,8.797355804E0,1.636397095E0,-5.890101471E0,1.071282222E1
7.205419583E0,9.372459869E0,1.557660828E0,-5.198689270E0,1.083031308E1
7.215436583E0,9.712702332E0,1.643133087E0,-5.098248138E0,1.109182613E1
7.225452583E0,9.841135254E0,1.680106201E0,-5.232818298E0,1.127178279E1
7.235469583E0,9.026978302E0,1.585203552E0,-4.921016693E0,1.040267335E1
7.245486583E0,7.837551727E0,1.652413788E0,-3.808081055E0,8.869000492E0
7.255503583E0,6.885082397E0,1.997296600E0,-3.165467377E0,7.836691715E0
7.265520583E0,6.013295288E0,2.331551514E0,-2.921025696E0,7.080130211E0
7.275537583E0,4.681365051E0,2.540516968E0,-2.975063324E0,6.100852972E0
7.285554583E0,2.729873199E0,2.627186737E0,-4.102967834E0,5.584681091E0
7.295571583E0,8.065228271E-1,2.743045807E0,-5.663921814E0,6.344666239E0
7.305588583E0,8.337661743E-2,3.201692047E0,-7.899971924E0,8.524514064E0
7.315605583E0,1.350641327E0,3.948638763E0,-1.026280838E1,1.107886348E1
7.325622583E0,4.341871033E0,4.217330017E0,-1.125359802E1,1.277815264E1
7.335639583E0,8.029602356E0,3.848197632E0,-1.083866089E1,1.402710622E1
7.345656583E0,9.738897858E0,3.347039795E0,-9.727521515E0,1.416592679E1
7.355673583E0,8.041577454E0,3.027604065E0,-8.662037201E0,1.220099352E1
7.365690583E0,5.865702209E0,3.005749512E0,-7.605085144E0,1.006371266E1
7.375707583E0,1.731000366E0,3.261567535E0,-5.396727448E0,6.539025325E0
7.385724583E0,1.393302612E0,3.559298401E0,-6.753206635E0,7.759877391E0
7.395741583E0,3.602408752E0,3.827540588E0,-8.259524231E0,9.790156092E0
7.405758583E0,4.553680573E0,4.417763214E0,-8.923393707E0,1.094895401E1
7.415775583E0,3.827839966E0,4.727768555E0,-9.466165009E0,1.125221908E1
7.425792583E0,2.689157867E0,4.564757538E0,-1.024080414E1,1.153007592E1
7.435809583E0,2.292632446E0,4.138893127E0,-1.051742889E1,1.153268878E1
7.445826583E0,3.170257416E0,3.630400543E0,-1.036339920E1,1.142936495E1
7.455843583E0,4.792284393E0,3.256927185E0,-9.932894440E0,1.149938939E1
7.465860583E0,5.406756592E0,3.110980682E0,-8.965905304E0,1.092239331E1
7.475877583E0,5.542973328E0,3.042722626E0,-8.215066681E0,1.036677553E1
7.485894583E0,6.564598846E0,2.882106628E0,-8.067473602E0,1.079280441E1
7.495911583E0,6.900949402E0,2.824027405E0,-6.571933594E0,9.939242657E0
7.505928583E0,5.877826996E0,2.854414215E0,-4.201463013E0,7.768450434E0
7.515945583E0,4.710105286E0,2.796634369E0,-2.806064758E0,6.154693739E0
7.525962583E0,4.701573029E0,2.739153900E0,-4.241130524E0,6.898908693E0
7.535979583E0,6.467001801E0,2.409838715E0,-6.535259857E0,9.504686019E0
7.545995583E0,8.586743774E0,1.988914032E0,-8.773854675E0,1.243657805E1
7.556012583E0,9.461824036E0,2.064207458E0,-1.102696930E1,1.467586858E1
7.566030167E0,9.689799957E0,2.475851440E0,-1.203063217E1,1.564474909E1
7.576047167E0,1.023107437E1,3.081192627E0,-1.238599319E1,1.635791729E1
7.586064166E0,1.005040009E1,3.653003540E0,-1.031415161E1,1.485721038E1
7.596081167E0,7.678731995E0,3.821553040E0,-6.211333466E0,1.058998848E1
7.606098167E0,5.335055695E0,3.630999298E0,-4.371958466E0,7.794933995E0
7.616115167E0,5.657485199E0,3.397335205E0,-6.101911011E0,8.987899825E0
7.626132166E0,6.372697906E0,2.438728638E0,-6.518494720E0,9.436601581E0
7.636149167E0,5.888005829E0,1.208736420E0,-7.367080078E0,9.508076843E0
7.646166167E0,5.245541840E0,4.855902100E-1,-8.953780518E0,1.038853660E1
7.656183166E0,5.153333588E0,6.194119263E-1,-9.788145447E0,1.107918361E1
7.666200167E0,5.778733063E0,1.481918335E0,-8.529562683E0,1.040880768E1
7.676217167E0,6.399641876E0,2.364782410E0,-5.743256836E0,8.918105801E0
7.686234166E0,6.586004333E0,2.774181061E0,-4.064797211E0,8.221563720E0
7.696251167E0,6.607260132E0,2.467319183E0,-3.032543793E0,7.677230767E0
7.706268167E0,7.619754639E0,1.892664185E0,-2.790497131E0,8.332449382E0
7.716285167E0,8.947044525E0,1.453926544E0,-2.683918762E0,9.453408277E0
7.726302166E0,8.616831207E0,1.362766113E0,-2.277813263E0,9.016393114E0
7.736319167E0,7.336992645E0,1.632804565E0,-2.066003723E0,7.795247476E0
7.746336167E0,6.912325745E0,1.906285858E0,-2.136507111E0,7.481900534E0
7.756353166E0,7.083270264E0,2.281854858E0,-3.146007843E0,8.079414866E0
7.766370167E0,7.225624237E0,2.567460938E0,-3.676804047E0,8.504139538E0
7.776387167E0,7.772287445E0,2.641556854E0,-3.991150360E0,9.127735532E0
7.786404166E0,7.971972198E0,2.498005371E0,-4.498595123E0,9.488399741E0
7.796421167E0,7.561076660E0,2.252216492E0,-4.802014160E0,9.235891910E0
7.806438167E0,7.079078979E0,2.058070221E0,-5.272036743E0,9.063298718E0
7.816455167E0,6.894812164E0,2.014211426E0,-5.908064117E0,9.300575470E0
7.826472166E0,7.056925049E0,1.992656250E0,-6.454427948E0,9.768854089E0
7.836489167E0,7.430248718E0,2.005230103E0,-6.894063721E0,1.033235977E1
7.846506167E0,7.700436859E0,2.023192749E0,-7.042105865E0,1.062926581E1
7.856523166E0,7.404352570E0,1.919159088E0,-6.447542267E0,1.000391972E1
7.866540167E0,6.248306580E0,2.020797729E0,-5.911357269E0,8.835672207E0
7.876557167E0,5.031936035E0,2.368225250E0,-6.636000366E0,8.658254556E0
7.886573167E0,4.610412598E0,2.762804718E0,-7.884703674E0,9.542407781E0
7.896590167E0,5.491929474E0,3.260220337E0,-9.110354919E0,1.112604569E1
7.906607166E0,7.935448151E0,3.534749451E0,-1.007449997E1,1.330268171E1
7.916624167E0,1.040022263E1,3.409609680E0,-9.619745636E0,1.457153303E1
7.926641167E0,1.126332779E1,2.872975616E0,-8.086334381E0,1.415999101E1
7.936658167E0,1.041444305E1,2.292632446E0,-6.560856628E0,1.252044837E1
7.946675166E0,7.778724060E0,2.140698395E0,-5.407804413E0,9.712645684E0
7.956692167E0,4.819527740E0,2.289938049E0,-4.940326538E0,7.271759774E0
7.966709167E0,3.421435089E0,2.656675415E0,-5.803880768E0,7.242180217E0
7.976726166E0,3.317251740E0,3.144960022E0,-7.334897003E0,8.642664328E0
7.986743167E0,3.140020294E0,3.673810272E0,-8.503816223E0,9.781180896E0
7.996760167E0,2.880460052E0,4.021836548E0,-9.690698090E0,1.088034231E1
8.006777166E0,2.488275604E0,4.054019623E0,-1.038929535E1,1.142646264E1
8.016794167E0,1.897154846E0,3.834426270E0,-1.058853104E1,1.142011431E1
8.026811167E0,1.631008301E0,3.622317352E0,-1.065723816E1,1.137357008E1
8.036828167E0,1.574575653E0,3.468736725E0,-1.029948212E1,1.098138219E1
8.046845166E0,1.786834259E0,3.367996216E0,-9.675579529E0,1.039966415E1
8.056862167E0,2.722987518E0,3.316802673E0,-9.096583557E0,1.005801538E1
8.066879167E0,4.033811646E0,3.257825317E0,-8.647966461E0,1.008327259E1
8.076896166E0,5.465434570E0,3.029999084E0,-8.314010925E0,1.040070417E1
8.086913167E0,6.541546783E0,2.598596191E0,-7.461982727E0,1.025795899E1
8.096930167E0,7.600444794E0,2.013912048E0,-6.083798676E0,9.941589869E0
8.106947166E0,8.794960785E0,1.600172424E0,-4.837191010E0,1.016416764E1
8.116964167E0,9.173373871E0,1.576222229E0,-4.232298889E0,1.022485299E1
8.126981167E0,8.706494751E0,1.895208893E0,-4.879253540E0,1.015883767E1
8.136998167E0,8.262967072E0,2.307301941E0,-6.139931946E0,1.054983561E1
8.147015166E0,8.754544830E0,2.697540436E0,-7.305707703E0,1.171717306E1
8.157032167E0,1.019020935E1,3.007096710E0,-8.884175262E0,1.384960531E1
8.167049167E0,1.162228134E1,3.211272125E0,-1.084449875E1,1.621705415E1
8.177066166E0,1.135493729E1,3.240910492E0,-1.186253174E1,1.673791387E1
8.187083167E0,7.636519775E0,2.564766541E0,-8.740773468E0,1.188678184E1
8.197100167E0,4.017495575E0,1.841620331E0,-7.623646545E0,8.812027167E0
8.207117166E0,2.458487549E0,1.322350159E0,-9.894723816E0,1.028096933E1
8.217134167E0,2.534529419E0,8.613088989E-1,-1.008632538E1,1.043549961E1
8.227151167E0,3.974684601E0,1.271755371E0,-1.018047958E1,1.100261987E1
8.237168167E0,5.154830475E0,1.949994965E0,-7.776628418E0,9.531563730E0
8.247185166E0,6.468947754E0,2.267933807E0,-4.852459259E0,8.398640941E0
8.257201166E0,8.544980621E0,1.974094849E0,-2.979254608E0,9.262273064E0
8.267218166E0,1.040950333E1,1.082399139E0,-7.378157043E-1,1.049160233E1
8.277235167E0,1.103654938E1,3.610491943E-1,-3.158432007E-2,1.104249864E1
8.287252167E0,1.021266266E1,1.919009399E-1,-1.797761536E-1,1.021604738E1
8.297269166E0,1.017164795E1,5.433700562E-1,-5.071453857E-1,1.019876804E1
8.307286167E0,1.110301117E1,1.116977234E0,-1.615290985E0,1.127535632E1
8.317303167E0,1.047222290E1,1.468596039E0,-2.145338745E0,1.079012072E1
8.327320166E0,8.993897095E0,1.743723907E0,-2.542013855E0,9.507501904E0
8.337337167E0,7.987240448E0,1.866917725E0,-3.284170532E0,8.835562679E0
8.347354167E0,7.014563141E0,1.803300018E0,-3.593726807E0,8.085224757E0
8.357371167E0,6.207441559E0,1.842518463E0,-4.060007172E0,7.642699996E0
8.367388166E0,6.399192810E0,2.026785278E0,-4.766987000E0,8.232963758E0
8.377405167E0,7.193141785E0,2.195933533E0,-5.402864685E0,9.260364983E0
8.387422167E0,8.170609131E0,2.313738556E0,-5.988297272E0,1.039095491E1
8.397439166E0,8.978030090E0,2.292183380E0,-6.213728485E0,1.115659225E1
8.407456167E0,9.159153442E0,2.073787537E0,-6.112538910E0,1.120508003E1
8.417473167E0,8.666527863E0,1.802102509E0,-5.718707886E0,1.053849603E1
8.427490166E0,7.992778931E0,1.568737793E0,-5.591771851E0,9.879947658E0
8.437507167E0,7.334597626E0,1.436862030E0,-6.242319031E0,9.737938268E0
8.447524167E0,6.449039154E0,1.334474945E0,-6.442303162E0,9.212719437E0
8.457541167E0,5.039121094E0,1.393003235E0,-6.080056458E0,8.018745908E0
8.467558166E0,3.801943817E0,1.875300293E0,-7.542814636E0,8.652489851E0
8.477575167E0,3.828289032E0,2.520009613E0,-9.227261810E0,1.030284455E1
8.487592167E0,5.218897247E0,3.234922943E0,-1.046069687E1,1.212962464E1
8.497609166E0,7.570956116E0,3.735032959E0,-1.115719849E1,1.399117314E1
8.507626167E0,1.046863037E1,3.609593811E0,-1.076007431E1,1.544022631E1
8.517643167E0,1.232177673E1,3.119962006E0,-9.291178894E0,1.574440694E1
8.527660166E0,1.224393860E1,2.329755249E0,-6.843468933E0,1.421882059E1
8.537677167E0,9.904603271E0,1.818418579E0,-5.083878021E0,1.128067497E1
8.547694167E0,6.455775146E0,1.692979431E0,-3.818559265E0,7.689252692E0
8.557711167E0,4.362677765E0,1.940714264E0,-3.498824158E0,5.919552316E0
8.567727916E0,4.155658264E0,2.358645172E0,-4.459077301E0,6.535753440E0
8.577744917E0,3.861669617E0,2.809507599E0,-5.885610809E0,7.579329771E0
8.587761917E0,2.808609467E0,3.382665710E0,-7.569010162E0,8.753321043E0
8.597778916E0,2.190245361E0,3.702251129E0,-9.510921936E0,1.043846130E1
8.607795916E0,2.070644073E0,3.725452881E0,-1.120090759E1,1.198444396E1
8.617812917E0,2.107916565E0,3.530707855E0,-1.204664886E1,1.272913819E1
8.627829917E0,2.116748199E0,3.185226288E0,-1.176238998E1,1.236851275E1
8.637846916E0,2.199675751E0,2.983445892E0,-1.074091415E1,1.136251555E1
8.647862917E0,2.603984985E0,2.838846588E0,-9.079818420E0,9.863208925E0
8.657879916E0,3.360212402E0,2.742147675E0,-7.601342926E0,8.751617881E0
8.667896917E0,4.531676331E0,2.566413116E0,-6.733148346E0,8.512217884E0
8.677913917E0,5.959107971E0,2.229763184E0,-6.176156616E0,8.867227425E0
8.687930916E0,7.364086304E0,1.851948853E0,-5.456902313E0,9.350789512E0
8.697947917E0,8.194110260E0,1.579665070E0,-4.435875549E0,9.450702438E0
8.707964917E0,8.270152130E0,1.564995575E0,-3.618126068E0,9.161629967E0
8.717981916E0,8.385412445E0,1.729353790E0,-3.707789612E0,9.330247061E0
8.727998917E0,9.350455627E0,1.882635040E0,-5.192701721E0,1.085999477E1
8.738015917E0,1.054946228E1,2.177970886E0,-7.616311798E0,1.319253262E1
8.748032917E0,1.074779984E1,2.663411407E0,-9.367520142E0,1.450377176E1
8.758049916E0,1.032507889E1,3.055296478E0,-1.025038422E1,1.486648806E1
8.768066917E0,9.400601349E0,3.343147888E0,-1.106139771E1,1.489639093E1
8.778083917E0,7.901618500E0,3.315754852E0,-1.115734818E1,1.406827009E1
8.788100916E0,6.258335724E0,2.874023438E0,-9.109307098E0,1.141955571E1
8.798117917E0,4.273463287E0,1.911075897E0,-6.946754150E0,8.376878463E0
8.808134917E0,3.615281982E0,8.547225952E-1,-6.942862244E0,7.874271437E0
8.818151916E0,5.017865295E0,3.269201660E-1,-7.641609192E0,9.147679485E0
8.828168917E0,5.945486298E0,4.947212219E-1,-7.791148224E0,9.813029453E0
8.838185917E0,6.232140198E0,6.912625122E-1,-4.982538757E0,8.008939241E0
8.848202917E0,8.367449799E0,8.901988220E-1,-3.446732483E0,9.093219171E0
8.858219916E0,1.161419815E1,1.101858673E0,-3.568878479E0,1.220002397E1
8.868236917E0,1.362511642E1,1.128203888E0,-2.475552063E0,1.389406347E1
8.878253917E0,1.265453476E1,8.448431396E-1,-8.951385498E-1,1.271425511E1
8.888270916E0,1.052416489E1,6.858737183E-1,-1.582658844E0,1.066458055E1
8.898287917E0,8.891060944E0,6.086343384E-1,-3.032843170E0,9.413795098E0
8.908304917E0,8.050708466E0,8.220904541E-1,-3.701053619E0,8.898737967E0
8.918321916E0,7.575147400E0,1.506616974E0,-4.089046783E0,8.739167949E0
8.928338917E0,7.253017273E0,2.140698395E0,-4.125570831E0,8.614475252E0
8.938355917E0,6.841672668E0,2.358645172E0,-4.076921997E0,8.306201594E0
8.948372917E0,6.265371094E0,2.107467499E0,-4.007167053E0,7.730050582E0
8.958389916E0,6.046376495E0,1.733096008E0,-4.111350403E0,7.514352443E0
8.968406917E0,6.419550476E0,1.491348724E0,-4.265080719E0,7.850201454E0
8.978423917E0,6.999444580E0,1.422940979E0,-4.892725525E0,8.657698801E0
8.988440916E0,7.293882294E0,1.311871948E0,-5.555247803E0,9.261884531E0
8.998457917E0,7.529941406E0,1.150956573E0,-6.144422607E0,9.786656620E0
9.008474917E0,7.938142548E0,9.806108093E-1,-6.498286743E0,1.030550509E1
9.018491916E0,8.601862335E0,9.096583557E-1,-7.070846100E0,1.117212507E1
9.028508916E0,9.248367920E0,9.981243896E-1,-7.386240234E0,1.187792517E1
9.038525917E0,9.228609009E0,1.127006378E0,-6.876400452E0,1.156383374E1
9.048542917E0,8.270451508E0,1.303489380E0,-6.177653503E0,1.040494380E1
9.058559916E0,6.987319794E0,1.662891998E0,-6.959028625E0,1.000079632E1
9.068575917E0,5.683830414E0,2.150877228E0,-7.867788849E0,9.941544266E0
9.078592916E0,4.977449341E0,2.771336975E0,-8.195607147E0,9.981146582E0
9.088609917E0,6.299799500E0,3.412753143E0,-9.160949707E0,1.163001966E1
9.098626917E0,8.971294098E0,3.664828949E0,-9.810149689E0,1.378963835E1
9.108643916E0,1.094134735E1,3.426823883E0,-8.789721680E0,1.444698623E1
9.118660917E0,1.105451202E1,2.996768188E0,-7.194189606E0,1.352550257E1
9.128677917E0,9.629774780E0,2.273322601E0,-5.152734833E0,1.115577134E1
9.138694916E0,6.674170990E0,1.646725616E0,-3.727698212E0,7.819974272E0
9.148711917E0,3.531306610E0,1.597478027E0,-3.717968445E0,5.370786886E0
9.158728917E0,2.274969177E0,2.133064270E0,-4.863536224E0,5.777493621E0
9.168745917E0,2.576741638E0,2.894680481E0,-6.576274567E0,7.633227347E0
9.178762916E0,3.015329590E0,3.528163147E0,-8.351133728E0,9.554139536E0
9.188779917E0,3.138224030E0,3.815565491E0,-9.792636108E0,1.096825930E1
9.198796917E0,2.900518341E0,3.718567200E0,-1.055365356E1,1.155942699E1
9.208813916E0,2.447709961E0,3.332519989E0,-1.065978287E1,1.143363216E1
9.218830917E0,2.255958710E0,2.924618225E0,-1.053808594E1,1.116664662E1
9.228847917E0,3.101550293E0,2.608924713E0,-1.050081345E1,1.125580674E1
9.238864916E0,4.492158508E0,2.330653381E0,-9.898316345E0,1.111701847E1
9.248881917E0,5.655838623E0,1.954335938E0,-8.412057037E0,1.032330582E1
9.258898917E0,6.834188232E0,1.482666779E0,-6.575975189E0,9.599368691E0
9.268915917E0,8.209079132E0,1.163081360E0,-4.644841003E0,9.503488117E0
9.278932916E0,9.523495789E0,1.175355835E0,-3.337310028E0,1.015953107E1
9.288949917E0,1.066367477E1,1.389111328E0,-3.334765320E0,1.125896308E1
9.298966917E0,1.101679047E1,1.779349823E0,-5.108426971E0,1.227321409E1
9.308983916E0,1.108100693E1,2.323917389E0,-7.232360229E0,1.343489267E1
9.319000917E0,1.128937363E1,2.889141998E0,-8.489745483E0,1.441779722E1
9.329017917E0,1.103385498E1,3.267704773E0,-9.429790649E0,1.487766117E1
9.339034916E0,9.620344391E0,3.342698822E0,-1.048853897E1,1.461964813E1
9.349051917E0,6.730154572E0,2.831960907E0,-9.045988770E0,1.162518370E1
9.359068917E0,3.925287323E0,2.149080963E0,-7.852520599E0,9.038169578E0
9.369085917E0,2.366878052E0,1.078058167E0,-7.944279785E0,8.359180727E0
9.379102916E0,2.885549469E0,2.168989563E-1,-9.479786682E0,9.911599086E0
9.389119917E0,3.932173004E0,2.887495422E-1,-9.381590881E0,1.017642414E1
9.399136917E0,3.684438171E0,1.261576538E0,-6.427483978E0,7.515265151E0
9.409153916E0,4.527634735E0,2.216141510E0,-3.833528137E0,6.332984878E0
9.419170917E0,7.638016663E0,2.409988403E0,-2.766546936E0,8.473554425E0
9.429187917E0,1.215382599E1,1.743125153E0,-2.564018097E0,1.254305227E1
9.439204916E0,1.596969086E1,6.965016174E-1,-1.574575653E0,1.606223612E1
9.449221916E0,1.525747192E1,2.525248718E-1,-3.909869385E-1,1.526456973E1
9.459238917E0,1.122410934E1,5.328918457E-1,-8.414002991E-1,1.126821010E1
9.469255917E0,9.308393097E0,6.170169067E-1,-2.268382874E0,9.600648560E0
9.479272916E0,9.154962158E0,7.135661316E-1,-3.608096924E0,9.866147787E0
9.489289917E0,8.790320435E0,1.053958282E0,-4.107159119E0,9.759575679E0
9.499306917E0,7.615114288E0,1.482217712E0,-4.412374420E0,8.925020056E0
9.509323916E0,6.362668762E0,1.708846436E0,-4.364773407E0,7.902844856E0
9.519340917E0,5.891598358E0,1.765877838E0,-4.379742279E0,7.550589261E0
9.529356916E0,6.088588715E0,1.736389160E0,-5.059778137E0,8.104771104E0
9.539373917E0,6.434818726E0,1.710792389E0,-6.190826111E0,9.091756187E0
9.549390917E0,6.949747925E0,1.688788147E0,-6.564598846E0,9.707984324E0
9.559407916E0,7.426057434E0,1.664837952E0,-7.131769409E0,1.042977226E1
9.569424208E0,7.771838379E0,1.561403046E0,-7.878716125E0,1.117647615E1
9.579441208E0,8.271199951E0,1.347348175E0,-8.896000671E0,1.222157615E1
9.589458208E0,8.918753357E0,1.025367737E0,-8.854087830E0,1.260914001E1
9.599475208E0,8.926686859E0,8.644523621E-1,-8.665030975E0,1.247059654E1
9.609492208E0,8.535849609E0,1.026565247E0,-9.511371002E0,1.282110538E1
9.619509208E0,8.316705322E0,1.391206970E0,-1.018003052E1,1.321877701E1
9.629526208E0,8.759933624E0,1.993105316E0,-1.042851379E1,1.376454888E1
9.639543208E0,1.047985703E1,2.533032532E0,-1.046698380E1,1.502668982E1
9.649560208E0,1.273910889E1,2.571203156E0,-8.956325226E0,1.578327414E1
9.659577208E0,1.399230286E1,1.946103058E0,-5.867797852E0,1.529715359E1
9.669594208E0,1.299013687E1,9.996212769E-1,-3.075953522E0,1.338672435E1
9.679611208E0,8.350385284E0,7.168592834E-1,-1.531764679E0,8.519925156E0
9.689628208E0,2.976859589E0,1.083596649E0,-1.667083282E0,3.579810243E0
9.699645208E0,8.418493652E-1,1.834584961E0,-3.715124359E0,4.228068275E0
9.709662208E0,1.784439240E0,2.530787201E0,-6.278244324E0,7.000389921E0
9.719679208E0,3.040926361E0,3.330723724E0,-8.509504395E0,9.630816097E0
9.729696208E0,2.851719818E0,4.116739197E0,-1.024469604E1,1.140322957E1
9.739713208E0,1.966610413E0,4.438569946E0,-1.123728195E1,1.224111781E1
9.749730208E0,1.707199860E0,4.040098572E0,-1.160132492E1,1.240272824E1
9.759747208E0,2.207758942E0,3.299738159E0,-1.162647263E1,1.228565575E1
9.769764208E0,2.708916779E0,2.598895569E0,-1.084599564E1,1.147728668E1
9.779781208E0,3.477867737E0,2.170785828E0,-9.395661621E0,1.025116249E1
9.789798208E0,5.010231171E0,1.780697021E0,-7.867339783E0,9.495700792E0
9.799815208E0,6.825356598E0,1.492246857E0,-6.483018494E0,9.531097637E0
9.809832208E0,8.085136871E0,1.288670197E0,-4.705315247E0,9.442992146E0
9.819849208E0,8.733588409E0,1.282682648E0,-2.848576355E0,9.275517696E0
9.829866208E0,9.068292389E0,1.466350708E0,-1.987566833E0,9.398645284E0
9.839883208E0,8.612041168E0,1.697320404E0,-1.820963287E0,8.964600210E0
9.849900208E0,7.742200012E0,2.012714539E0,-2.891986084E0,8.506248548E0
9.859917208E0,7.999365234E0,2.313439178E0,-5.245242462E0,9.841463990E0
9.869934208E0,9.597292328E0,2.586621094E0,-8.684939575E0,1.319950015E1
9.879951208E0,1.176418625E1,2.845133514E0,-1.213706085E1,1.714056910E1
9.889968208E0,1.264884659E1,2.991080017E0,-1.387644379E1,1.901303689E1
9.899985208E0,1.072115524E1,2.880759430E0,-1.330762665E1,1.733017229E1
9.910002208E0,6.652466125E0,2.280357971E0,-9.494306488E0,1.181512563E1
9.920019208E0,2.763852539E0,1.654958496E0,-7.036417694E0,7.738794638E0
9.930036208E0,2.877017212E-1,9.000782776E-1,-5.837710419E0,5.913693949E0
9.940053208E0,2.882256317E0,7.045848083E-1,-7.487579498E0,8.054047925E0
9.950070208E0,6.989116058E0,8.631051636E-1,-8.337811432E0,1.091383495E1
9.960087208E0,7.802225189E0,1.093326416E0,-6.729705505E0,1.036141963E1
9.970104208E0,7.894283752E0,1.296154633E0,-4.130510559E0,9.003379936E0
9.980121208E0,9.505832520E0,1.199605408E0,-3.137325897E0,1.008180137E1
9.990138208E0,1.209484863E1,7.830216980E-1,-2.983595581E0,1.248200020E1
1.000015521E1,1.361314133E1,3.116519165E-1,-2.696043549E0,1.388104443E1
1.001017221E1,1.195923065E1,9.131011963E-3,-1.354682922E0,1.203571547E1
1.002018921E1,9.452693024E0,3.248245239E-2,-4.543052673E-1,9.463659640E0
1.003020521E1,8.828191681E0,4.532574463E-1,-1.104852448E0,8.908597510E0
1.004022221E1,9.167985077E0,9.592053223E-1,-2.298769684E0,9.500335114E0
1.005023921E1,8.798703003E0,1.419049072E0,-3.372786255E0,9.529247710E0
1.006025621E1,8.030650177E0,1.720971222E0,-3.882176971E0,9.084293162E0
1.007027321E1,7.414531403E0,1.879341888E0,-3.968397675E0,8.617156257E0
1.008029021E1,7.166197815E0,2.000889130E0,-3.672612762E0,8.297350959E0
1.009030721E1,7.384144592E0,1.994602203E0,-3.359613647E0,8.354102775E0
1.010032421E1,7.688611450E0,1.857637024E0,-3.103196869E0,8.496787166E0
1.011034121E1,7.976612549E0,1.653311920E0,-3.365451508E0,8.813969135E0
1.012035821E1,7.646249542E0,1.466051331E0,-3.863166504E0,8.691288397E0
1.013037521E1,6.900949402E0,1.360071716E0,-4.823419647E0,8.528673684E0
1.014039221E1,6.623576202E0,1.401685181E0,-5.950725403E0,9.013745940E0
1.015040921E1,6.806196442E0,1.448388062E0,-6.405479736E0,9.457923061E0
1.016042621E1,6.774462433E0,1.370549927E0,-6.179599457E0,9.271418327E0
1.017044321E1,6.415059814E0,1.220412140E0,-6.055058441E0,8.905398977E0
1.018046021E1,6.008056183E0,1.043629761E0,-7.338040466E0,9.541107905E0
1.019047721E1,5.959407349E0,8.765771484E-1,-8.209528198E0,1.018230213E1
1.020049421E1,6.355783081E0,1.059496765E0,-1.013916550E1,1.201337542E1
1.021051121E1,6.896309052E0,1.514550476E0,-1.208422073E1,1.399576123E1
1.022052821E1,8.007598114E0,1.957479401E0,-1.252445526E1,1.499384316E1
1.023054521E1,1.041519150E1,2.417921906E0,-1.224483673E1,1.625603232E1
1.024056221E1,1.367541183E1,2.556533661E0,-1.103744751E1,1.775888512E1
1.025057921E1,1.610500946E1,1.620380402E0,-7.438032532E0,1.781351426E1
1.026059621E1,1.611339203E1,2.727328491E-1,-3.587739258E0,1.651022892E1
1.027061321E1,1.224423798E1,-1.013392639E-1,-1.629810791E0,1.235264816E1
1.028063021E1,5.871689758E0,4.243675232E-1,1.733395386E-1,5.889556436E0
1.029064721E1,2.552192688E-1,1.638492737E0,2.007325745E-1,1.670355917E0
1.030066421E1,-4.367916870E-1,2.594404907E0,-2.716850281E0,3.781930625E0
1.031068121E1,3.043171692E0,2.842439117E0,-6.765630798E0,7.944439199E0
1.032069821E1,6.027964783E0,2.842588806E0,-9.855205994E0,1.189713225E1
1.033071521E1,6.440506897E0,2.785108337E0,-1.152333710E1,1.349163650E1
1.034073221E1,5.193599854E0,2.651735687E0,-1.222582626E1,1.354533165E1
1.035074921E1,4.461472321E0,2.412084045E0,-1.227058319E1,1.327742809E1
1.036076621E1,5.348228302E0,2.050286407E0,-1.160297150E1,1.293971282E1
1.037078321E1,6.866221619E0,1.697470093E0,-9.848170624E0,1.212488634E1
1.038080021E1,8.052953796E0,1.531315613E0,-7.702831879E0,1.124849373E1
1.039081721E1,8.765172729E0,1.682052155E0,-6.184539185E0,1.085845649E1
1.040083421E1,9.120084686E0,1.977986755E0,-5.685476990E0,1.092762668E1
1.041085121E1,9.532776489E0,2.307152252E0,-5.637875977E0,1.131293174E1
1.042086821E1,9.700128479E0,2.528990936E0,-5.619015198E0,1.149180662E1
1.043088521E1,9.757309570E0,2.566113739E0,-5.266647949E0,1.138101974E1
1.044090221E1,9.816436615E0,2.380948792E0,-4.805307312E0,1.118580902E1
1.045091921E1,9.708660736E0,2.134112091E0,-5.600603485E0,1.140961380E1
1.046093621E1,8.752898254E0,1.851649475E0,-7.070097656E0,1.140298709E1
1.047095321E1,6.970404968E0,1.516795807E0,-8.202792206E0,1.087074123E1
1.048097021E1,5.093907166E0,1.204096069E0,-8.061186676E0,9.611475859E0
1.049098721E1,4.527035980E0,1.189426575E0,-8.826096039E0,9.990433506E0
1.050100421E1,4.552782440E0,1.382075958E0,-9.555229797E0,1.067428585E1
1.051102121E1,4.772824860E0,1.833686829E0,-8.769663391E0,1.015131817E1
1.052103821E1,5.466183014E0,2.457439728E0,-6.307283936E0,8.700574544E0
1.053105521E1,6.489155731E0,2.622546387E0,-4.041595459E0,8.082164655E0
1.054107221E1,7.863597565E0,1.980980530E0,-2.233804779E0,8.411321793E0
1.055108921E1,9.527836761E0,1.190324707E0,-3.038082275E0,1.007107195E1
1.056110621E1,1.051638107E1,6.051914978E-1,-3.398981781E0,1.106858639E1
1.057112354E1,1.027613068E1,4.739144897E-1,-2.745291138E0,1.064706908E1
1.058114054E1,9.792486420E0,6.897656250E-1,-2.323318634E0,1.008793221E1
1.059115654E1,9.422006836E0,8.747808838E-1,-2.076931000E0,9.687780798E0
1.060117454E1,9.364376678E0,9.262738037E-1,-1.940115509E0,9.607995729E0
1.061119154E1,9.605674896E0,9.490264893E-1,-1.974394226E0,9.852302982E0
1.062120854E1,9.322763214E0,1.009201355E0,-2.247127075E0,9.642716496E0
1.063122454E1,8.373287659E0,1.078806610E0,-2.596949615E0,8.832888385E0
1.064124154E1,7.539072418E0,1.247206421E0,-3.158581696E0,8.268601763E0
1.065125854E1,7.015461273E0,1.488354950E0,-4.092190247E0,8.256992088E0
1.066127554E1,6.615193634E0,1.696272583E0,-5.325026550E0,8.659909656E0
1.067129254E1,6.404880981E0,1.858086090E0,-6.127657471E0,9.056664418E0
1.068130954E1,6.409970398E0,1.964664459E0,-6.825955353E0,9.567721433E0
1.069132654E1,6.357878723E0,1.956581268E0,-7.172035675E0,9.782071756E0
1.070134354E1,6.304290161E0,1.831291809E0,-7.679181061E0,1.010284741E1
1.071136054E1,6.332281952E0,1.548978882E0,-7.653284912E0,1.005335269E1
1.072137754E1,6.417005768E0,1.337768097E0,-7.930658112E0,1.028897102E1
1.073139454E1,6.835086365E0,1.361418915E0,-9.737999725E0,1.197499502E1
1.074141154E1,6.953041077E0,1.458267517E0,-1.068223618E1,1.282893191E1
1.075142854E1,7.245532837E0,1.649719391E0,-1.076411591E1,1.307996603E1
1.076144554E1,8.900790710E0,1.976639557E0,-1.111034592E1,1.437257686E1
1.077146254E1,1.195533875E1,1.976489868E0,-1.068762497E1,1.615741205E1
1.078147954E1,1.512604523E1,1.127006378E0,-7.456743622E0,1.690178727E1
1.079149654E1,1.593660965E1,-1.571731567E-1,-3.997437286E0,1.643106008E1
1.080151354E1,1.294433212E1,-6.644682312E-1,-2.275418243E0,1.315958891E1
1.081153054E1,7.499404907E0,1.122665405E-1,-1.422342224E0,7.633920038E0
1.082154754E1,2.890339508E0,1.667682037E0,-1.293160858E0,3.578755490E0
1.083156454E1,1.306932220E0,3.002905426E0,-3.338058472E0,4.676339080E0
1.084158154E1,2.842888184E0,3.381019135E0,-6.600673828E0,7.942430270E0
1.085159854E1,4.590054932E0,3.574267273E0,-9.617949371E0,1.124050448E1
1.086161554E1,4.633015594E0,3.727398834E0,-1.185908890E1,1.326636066E1
1.087163254E1,3.267106018E0,3.665577393E0,-1.315868637E1,1.404498011E1
1.088164954E1,2.028731232E0,3.270099792E0,-1.324475739E1,1.379249438E1
1.089166654E1,1.779798889E0,2.707719269E0,-1.209110641E1,1.251775867E1
1.090168354E1,2.280807037E0,2.457888794E0,-1.053134995E1,1.105226808E1
1.091170054E1,3.255130920E0,2.557731171E0,-9.272767181E0,1.015490410E1
1.092171754E1,4.633015594E0,2.706372070E0,-8.328830109E0,9.907506965E0
1.093173454E1,5.890400848E0,2.682870941E0,-7.329059143E0,9.778022631E0
1.094175154E1,7.005581818E0,2.367027740E0,-6.389163666E0,9.772533411E0
1.095176854E1,8.326435089E0,1.835034027E0,-5.724396057E0,1.026964368E1
1.096178554E1,9.578132172E0,1.244661713E0,-5.342540131E0,1.103777757E1
1.097180254E1,1.054976166E1,8.572673035E-1,-5.612877960E0,1.198068351E1
1.098181954E1,1.078776672E1,7.833210754E-1,-5.803880768E0,1.227495559E1
1.099183654E1,1.024304947E1,1.082548828E0,-6.762038269E0,1.232140966E1
1.100185354E1,1.042357407E1,1.601968689E0,-9.185947723E0,1.398566536E1
1.101187054E1,1.101319794E1,2.288141785E0,-1.082473984E1,1.561092932E1
1.102188754E1,1.098116455E1,2.981949005E0,-1.089090225E1,1.575086495E1
1.103190454E1,1.021266266E1,3.508553925E0,-1.080857346E1,1.527853689E1
1.104192154E1,8.691974945E0,3.619323578E0,-1.029768585E1,1.395321703E1
1.105193854E1,6.282435608E0,3.269501038E0,-8.681197357E0,1.120365216E1
1.106195554E1,3.045566711E0,2.531835022E0,-8.027955780E0,8.951745035E0
1.107197254E1,8.222401428E-1,1.436412964E0,-8.920399933E0,9.072645481E0
1.108198954E1,1.368005219E0,6.427633667E-1,-1.059646454E1,1.070372102E1
1.109200654E1,2.831362152E0,5.956114197E-1,-1.047521667E1,1.086745274E1
1.110202354E1,3.909270630E0,1.355131989E0,-7.933651886E0,8.947715452E0
1.111204054E1,4.988526306E0,2.244432678E0,-4.839735718E0,7.303828761E0
1.112205754E1,7.090455322E0,2.562072144E0,-2.308200073E0,7.884577219E0
1.113207454E1,9.829010468E0,2.093546448E0,-9.481283569E-1,1.009412358E1
1.114209154E1,1.181433197E1,1.219663696E0,-1.369202728E0,1.195578251E1
1.115210854E1,1.137574402E1,3.541635132E-1,-1.278940430E0,1.145288926E1
1.116212554E1,9.284742279E0,8.996292114E-2,-1.339564362E0,9.381309354E0
1.117214254E1,8.341553650E0,5.878276062E-1,-2.262545013E0,8.662919169E0
1.118215954E1,8.295299835E0,1.324745178E0,-3.402574310E0,9.063358157E0
1.119217654E1,7.779921570E0,1.695075073E0,-4.096381531E0,8.954373277E0
1.120219354E1,7.228618011E0,1.832938385E0,-4.658462677E0,8.792829806E0
1.121221054E1,7.043602753E0,1.901346130E0,-5.359754333E0,9.052868239E0
1.122222754E1,7.276219025E0,1.925595703E0,-6.225553894E0,9.767743004E0
1.123224454E1,7.635172577E0,1.850751343E0,-6.645580444E0,1.029003791E1
1.124226154E1,8.366701355E0,1.735940094E0,-6.559659119E0,1.077238633E1
1.125227854E1,9.447753296E0,1.520687714E0,-6.411616974E0,1.151873976E1
1.126229554E1,9.628876648E0,1.267115021E0,-5.367089081E0,1.109623770E1
1.127231254E1,9.078620911E0,1.249900818E0,-5.157674561E0,1.051595058E1
1.128232954E1,8.373587036E0,1.353934479E0,-4.741090851E0,9.717409165E0
1.129234654E1,7.166646881E0,1.517843628E0,-3.741469574E0,8.225768740E0
1.130236354E1,6.050567780E0,1.925595703E0,-4.345164185E0,7.694006827E0
1.131238054E1,5.451513519E0,2.439776459E0,-5.570665741E0,8.167241004E0
1.132239754E1,5.011428680E0,2.933599548E0,-6.411916351E0,8.650612408E0
1.133241454E1,4.999453583E0,3.464395752E0,-6.993157654E0,9.268269958E0
1.134243154E1,5.986950073E0,3.815565491E0,-7.691754913E0,1.046733991E1
1.135244754E1,6.645879822E0,3.826343079E0,-8.163723450E0,1.120066965E1
1.136246554E1,6.214327240E0,3.591780853E0,-7.669900360E0,1.050457635E1
1.137248154E1,4.994962921E0,3.357667694E0,-6.352789307E0,8.751086727E0
1.138249854E1,3.845652924E0,3.279530182E0,-5.234764252E0,7.276477265E0
1.139251554E1,2.911295929E0,3.532354431E0,-5.924080811E0,7.486514894E0
1.140253254E1,1.887275391E0,3.917204132E0,-7.306007080E0,8.502001886E0
1.141254954E1,2.027533722E0,4.419709167E0,-9.273216248E0,1.047078133E1
1.142256654E1,4.249513092E0,4.540657654E0,-1.084943848E1,1.250544876E1
1.143258354E1,6.447392578E0,4.349205780E0,-1.072429871E1,1.324745427E1
1.144260054E1,6.652166748E0,4.375700684E0,-1.020862106E1,1.294658345E1
1.145261754E1,5.217400360E0,4.292922821E0,-9.224717102E0,1.143441553E1
1.146263454E1,4.388274536E0,3.877087555E0,-8.293204193E0,1.015214249E1
1.147265154E1,4.685556335E0,3.331771545E0,-7.653284912E0,9.572246850E0
1.148266854E1,4.898862762E0,3.132984924E0,-7.070846100E0,9.154852018E0
1.149268554E1,4.822222137E0,3.098406830E0,-6.626420288E0,8.761472311E0
1.150270254E1,4.813989258E0,3.113824768E0,-6.954088898E0,9.012754832E0
1.151271954E1,4.907844086E0,2.958747253E0,-7.334897003E0,9.308159481E0
1.152273654E1,5.462141418E0,2.531086578E0,-6.756649475E0,9.049513814E0
1.153275354E1,6.663992157E0,1.833537140E0,-6.028264160E0,9.171184149E0
1.154277054E1,7.952362976E0,1.566043396E0,-7.298223267E0,1.090672415E1
1.155278754E1,8.410260773E0,1.831591187E0,-8.954528961E0,1.242057976E1
1.156280454E1,7.586074677E0,2.242037659E0,-8.619974670E0,1.169953953E1
1.157282104E1,6.982080688E0,2.465522919E0,-7.699089661E0,1.068195842E1
1.158283804E1,7.926317139E0,2.614612885E0,-7.928861847E0,1.151214811E1
1.159285504E1,9.672885132E0,2.781815186E0,-8.175997925E0,1.296727206E1
1.160287204E1,1.183992874E1,2.959944763E0,-8.276888123E0,1.474625588E1
1.161288904E1,1.310913940E1,3.019071808E0,-8.506211243E0,1.591602841E1
1.162290604E1,1.186522614E1,2.759810944E0,-8.215815125E0,1.469352803E1
1.163292304E1,8.380472717E0,2.054777069E0,-7.369026031E0,1.134711313E1
1.164294004E1,5.718857574E0,1.398541718E0,-6.333629150E0,8.647318030E0
1.165295704E1,4.021686859E0,8.033793640E-1,-5.587281189E0,6.930879791E0
1.166297404E1,3.454216919E0,5.120851135E-1,-6.108048248E0,7.035772814E0
1.167299104E1,4.696333923E0,7.113208008E-1,-7.128476257E0,8.566020275E0
1.168300804E1,5.731431427E0,1.247805176E0,-6.304589539E0,8.611281740E0
1.169302504E1,5.845793610E0,2.013163605E0,-4.420158234E0,7.600258511E0
1.170304204E1,5.999374237E0,2.560874634E0,-2.984044647E0,7.173220517E0
1.171305904E1,7.459288330E0,2.657124481E0,-2.443219299E0,8.286773404E0
1.172307604E1,8.696615295E0,2.146087189E0,-1.660347290E0,9.110080183E0
1.173309304E1,8.882079620E0,1.401834869E0,-9.144483948E-1,9.038401145E0
1.174311004E1,8.716374207E0,1.017733612E0,-1.239422607E0,8.862681841E0
1.175312704E1,9.110504608E0,1.535506897E0,-2.817590790E0,9.659083471E0
1.176314404E1,9.576335907E0,2.089804230E0,-4.181554413E0,1.065640129E1
1.177316104E1,9.504784698E0,2.160157928E0,-5.086123352E0,1.099435606E1
1.178317804E1,8.992549896E0,1.899400177E0,-5.216951294E0,1.056836106E1
1.179319504E1,8.232131195E0,1.597328339E0,-4.967120819E0,9.746370148E0
1.180321204E1,7.563771057E0,1.504820709E0,-4.680466919E0,9.021191083E0
1.181322904E1,7.126829681E0,1.522633667E0,-4.538562012E0,8.585374757E0
1.182324604E1,6.873406677E0,1.557511139E0,-4.719236298E0,8.481789406E0
1.183326304E1,6.690936127E0,1.553170166E0,-5.027595062E0,8.512207465E0
1.184328004E1,6.778803406E0,1.618584137E0,-5.735772400E0,9.026132907E0
1.185329704E1,7.028484192E0,1.710792389E0,-6.232738953E0,9.548478176E0
1.186331404E1,7.489675140E0,1.804796906E0,-6.412515106E0,1.002361589E1
1.187333104E1,7.754175110E0,1.908680878E0,-6.448889465E0,1.026442739E1
1.188334804E1,7.508685608E0,1.953138428E0,-6.062991943E0,9.846572022E0
1.189336504E1,6.878496094E0,2.043400726E0,-6.134992218E0,9.440726908E0
1.190338204E1,6.412365417E0,2.302212524E0,-7.135960693E0,9.866131348E0
1.191339904E1,5.819448395E0,2.720742188E0,-7.883955231E0,1.016981651E1
1.192341604E1,5.354664917E0,3.357068939E0,-8.391549683E0,1.050525841E1
1.193343304E1,6.191125488E0,4.014801178E0,-9.123976593E0,1.173437737E1
1.194345004E1,8.214168549E0,4.254602509E0,-9.591005402E0,1.332522390E1
1.195346704E1,1.027358597E1,3.728895721E0,-9.209748230E0,1.429232992E1
1.196348404E1,1.076591217E1,2.771786041E0,-7.686366119E0,1.351546843E1
1.197350104E1,8.666228485E0,1.924547882E0,-5.441334686E0,1.041227755E1
1.198351804E1,5.256319427E0,1.539099426E0,-3.861819305E0,6.701594535E0
1.199353504E1,2.728226624E0,2.077080688E0,-4.287384338E0,5.489913402E0
1.200355204E1,2.527943115E0,3.003803558E0,-6.049669647E0,7.211923117E0
1.201356904E1,4.264332275E0,3.487747192E0,-7.779322815E0,9.532406501E0
1.202358604E1,5.742957458E0,3.570525055E0,-9.172924805E0,1.139617300E1
1.203360304E1,5.079537048E0,3.567980347E0,-9.660011902E0,1.148250889E1
1.204362004E1,4.226461029E0,3.326831818E0,-9.967921600E0,1.132652832E1
1.205363704E1,4.099674683E0,2.926115112E0,-1.001881577E1,1.121365915E1
1.206365404E1,3.522774353E0,2.889141998E0,-9.755662994E0,1.076708136E1
1.207367104E1,2.934946747E0,3.139571228E0,-9.177116089E0,1.013362125E1
1.208368804E1,3.630699921E0,3.321143646E0,-8.976233826E0,1.023644229E1
1.209370504E1,5.474864960E0,3.231180725E0,-9.005423126E0,1.102326272E1
1.210372204E1,7.129823456E0,2.947370911E0,-8.595276031E0,1.154989818E1
1.211373904E1,7.471113739E0,2.577190704E0,-7.502398682E0,1.089703806E1
1.212375604E1,7.128176880E0,2.251767426E0,-5.874533844E0,9.507444980E0
1.213377304E1,7.079977112E0,2.028431854E0,-4.324207764E0,8.540455753E0
1.214379004E1,7.642657013E0,1.889371033E0,-3.424279175E0,8.585197551E0
1.215380704E1,8.732091522E0,1.723216553E0,-3.084934845E0,9.419963940E0
1.216382404E1,9.895172882E0,1.689985657E0,-4.868475952E0,1.115672694E1
1.217384104E1,1.068253555E1,1.989512787E0,-7.770042114E0,1.335845356E1
1.218385804E1,1.117141891E1,2.452500000E0,-9.597292328E0,1.493061877E1
1.219387504E1,1.095347214E1,2.803070984E0,-9.599387970E0,1.483185788E1
1.220389204E1,9.755513306E0,2.947670288E0,-8.704099731E0,1.340224429E1
1.221390904E1,8.162975006E0,2.920576630E0,-8.804391174E0,1.235642476E1
1.222392604E1,6.095025330E0,2.577789459E0,-7.979456635E0,1.036658384E1
1.223394304E1,3.796105957E0,1.891915741E0,-6.641987915E0,7.880721355E0
1.224396004E1,2.468367004E0,1.075663147E0,-7.568112030E0,8.032820586E0
1.225397704E1,3.009042664E0,4.908293152E-1,-9.753118286E0,1.021854038E1
1.226399404E1,3.947441254E0,4.960684204E-1,-9.566157074E0,1.036048925E1
1.227401104E1,4.695286102E0,1.772913208E0,-8.180787964E0,9.597615565E0
1.228402804E1,5.874234467E0,3.016078033E0,-4.849315796E0,8.192632114E0
1.229404504E1,7.717950439E0,3.061733093E0,-1.996997223E0,8.539845808E0
1.230406204E1,9.971364441E0,2.168989563E0,-1.157243500E0,1.026994825E1
1.231407904E1,1.163021484E1,1.028810577E0,-1.448537750E0,1.176514386E1
1.232409604E1,1.209200455E1,4.785548401E-1,-1.884131927E0,1.224726671E1
1.233411304E1,1.167691772E1,7.220983887E-1,-1.499132538E0,1.179488160E1
1.234413004E1,1.137230118E1,1.336121521E0,-1.266665955E0,1.152036881E1
1.235414704E1,1.089778793E1,1.820963287E0,-1.972747650E0,1.122361004E1
1.236416304E1,9.909243622E0,1.799557800E0,-2.527494049E0,1.038362863E1
1.237418104E1,9.077722778E0,1.563798065E0,-3.071911926E0,9.710157471E0
1.238419804E1,8.405770111E0,1.373094635E0,-3.458408203E0,9.192548468E0
1.239421404E1,7.443870392E0,1.365460510E0,-3.676804047E0,8.413951320E0
1.240423104E1,6.254743195E0,1.409019928E0,-3.961811371E0,7.536783062E0
1.241424804E1,5.492378540E0,1.424437866E0,-4.014202423E0,6.950472384E0
1.242426504E1,5.213209076E0,1.449884949E0,-4.764142914E0,7.209491864E0
1.243428204E1,5.266049194E0,1.526226196E0,-5.936205597E0,8.080790643E0
1.244429904E1,5.618117065E0,1.589245148E0,-6.757397919E0,8.930362038E0
1.245431604E1,6.135441284E0,1.610800323E0,-7.860603790E0,1.010086181E1
1.246433304E1,7.090155945E0,1.596280518E0,-8.495882721E0,1.118027039E1
1.247435004E1,8.446934509E0,1.557660828E0,-8.524622955E0,1.210149604E1
1.248436704E1,9.525890808E0,1.553619232E0,-8.951684875E0,1.316392763E1
1.249438404E1,1.000489471E1,1.562151489E0,-8.761729889E0,1.339052449E1
1.250440104E1,1.016850449E1,1.679058380E0,-8.181087341E0,1.315856795E1
1.251441804E1,9.893376617E0,2.026186523E0,-7.671996002E0,1.268242309E1
1.252443504E1,9.451046448E0,2.540816345E0,-7.292086029E0,1.220461164E1
1.253445204E1,9.692194977E0,3.006797333E0,-7.146139526E0,1.241155848E1
1.254446904E1,1.071277267E1,3.042572937E0,-6.306236115E0,1.279802182E1
1.255448604E1,1.124790985E1,2.479743347E0,-4.642146606E0,1.241829812E1
1.256450304E1,9.925859070E0,1.780098267E0,-3.554358673E0,1.069228197E1
1.257452079E1,7.288792877E0,1.375489655E0,-4.027375031E0,8.440273872E0
1.258453779E1,4.404141541E0,1.572480011E0,-4.949607239E0,6.809388219E0
1.259455479E1,1.946701813E0,2.627486115E0,-6.782246246E0,7.529421982E0
1.260457179E1,1.270258484E0,3.681145020E0,-8.543034668E0,9.388707398E0
1.261458879E1,2.570155334E0,4.000580750E0,-9.312883759E0,1.045658399E1
1.262460579E1,4.151466980E0,3.807631989E0,-1.015413437E1,1.161202757E1
1.263462279E1,3.792064362E0,3.314407654E0,-1.054452255E1,1.168554689E1
1.264463979E1,2.398162994E0,2.761457520E0,-1.023167313E1,1.086572447E1
1.265465679E1,2.174528046E0,2.393672333E0,-9.729018402E0,1.025241623E1
1.266467379E1,2.853965149E0,2.412682800E0,-8.893905029E0,9.647160309E0
1.267469079E1,3.752097473E0,2.620600433E0,-7.763755188E0,9.012306958E0
1.268470779E1,5.096900940E0,2.703378296E0,-7.022496643E0,9.088570432E0
1.269472479E1,6.716832275E0,2.505040741E0,-6.457421722E0,9.648282761E0
1.270474179E1,8.027057648E0,2.145338745E0,-5.930068359E0,1.020793042E1
1.271475879E1,8.762328644E0,1.828896790E0,-5.407804413E0,1.045789727E1
1.272477579E1,8.893605652E0,1.647324371E0,-4.393962708E0,1.005568532E1
1.273479279E1,8.955277405E0,1.622176666E0,-3.567381592E0,9.775206492E0
1.274480979E1,9.272467804E0,1.700912933E0,-4.153712311E0,1.030170325E1
1.275482679E1,9.576036530E0,1.815275116E0,-5.760770416E0,1.132175672E1
1.276484379E1,1.024275009E1,2.227218475E0,-7.953710175E0,1.315811298E1
1.277486079E1,1.113564331E1,2.926115112E0,-1.056742493E1,1.562802518E1
1.278487779E1,1.142379410E1,3.509601746E0,-1.235081635E1,1.718612930E1
1.279489479E1,9.613159332E0,3.825594635E0,-1.295091843E1,1.657631729E1
1.280491179E1,5.615422668E0,3.536246338E0,-9.886940002E0,1.190754351E1
1.281492879E1,1.560355225E0,2.814147949E0,-6.172564087E0,6.960939916E0
1.282494579E1,-2.519261169E-1,1.750160522E0,-4.787494354E0,5.103589993E0
1.283496279E1,2.873574371E0,9.966275024E-1,-6.563850403E0,7.234281454E0
1.284497979E1,7.705376587E0,7.451504517E-1,-8.869356079E0,1.177257639E1
1.285499679E1,8.046966248E0,6.192622375E-1,-6.641239471E0,1.045194782E1
1.286501379E1,6.635251923E0,9.931846619E-1,-3.015928345E0,7.355868924E0
1.287503079E1,7.753276978E0,1.489552460E0,-1.076710968E0,7.968147647E0
1.288504779E1,1.053329590E1,1.674867096E0,-1.233435059E0,1.073670640E1
1.289506479E1,1.219558914E1,1.232237549E0,-6.182144165E-1,1.227326334E1
1.290508179E1,1.149624344E1,7.788304138E-1,-9.135502625E-1,1.155875271E1
1.291509879E1,1.075842773E1,1.030008087E0,-1.316961365E0,1.088756498E1
1.292511579E1,1.073627380E1,1.614692230E0,-1.879940643E0,1.101857445E1
1.293513279E1,9.997410278E0,1.983076172E0,-2.469115448E0,1.048700789E1
1.294514979E1,9.544302521E0,2.142344971E0,-3.282224579E0,1.031776869E1
1.295516679E1,8.924441528E0,2.071392517E0,-3.735332336E0,9.893888579E0
1.296518379E1,7.826774139E0,1.856289825E0,-4.074676666E0,9.017050254E0
1.297520079E1,6.893165588E0,1.651365967E0,-4.356390839E0,8.319908805E0
1.298521779E1,6.259533234E0,1.591041412E0,-4.721331940E0,8.000259019E0
1.299523479E1,5.996380463E0,1.740430756E0,-5.469326477E0,8.300554800E0
1.300525179E1,6.258784790E0,1.916315002E0,-6.818770294E0,9.451998654E0
1.301526879E1,6.318360901E0,1.935026093E0,-7.595205688E0,1.006743065E1
1.302528579E1,6.337820435E0,1.855391693E0,-7.984396362E0,1.036151685E1
1.303530279E1,6.667434998E0,1.681303711E0,-8.034542084E0,1.057522284E1
1.304531979E1,7.038812714E0,1.432670746E0,-7.761958923E0,1.057570027E1
1.305533679E1,7.486232300E0,1.280587006E0,-8.699010315E0,1.154800232E1
1.306535379E1,8.217312012E0,1.294657745E0,-9.786648560E0,1.284440911E1
1.307537079E1,9.076225891E0,1.540596313E0,-1.078971268E1,1.418341331E1
1.308538779E1,1.031519943E1,1.947001190E0,-1.137424713E1,1.547797308E1
1.309540479E1,1.177556259E1,2.334694977E0,-1.094688583E1,1.624650684E1
1.310542179E1,1.343890366E1,2.277663574E0,-9.117390289E0,1.639874046E1
1.311543879E1,1.468206848E1,1.349593506E0,-5.573958893E0,1.576240956E1
1.312545579E1,1.408540924E1,1.679507446E-1,-1.920206909E0,1.421668581E1
1.313547279E1,1.055814423E1,9.325607300E-2,2.567161560E-1,1.056167645E1
1.314548979E1,5.942492523E0,1.078656921E0,8.578660583E-1,6.100217399E0
1.315550679E1,3.190465393E0,2.388882294E0,-9.839039612E-1,4.105349564E0
1.316552379E1,2.986589355E0,3.349135437E0,-4.851710815E0,6.608745871E0
1.317554079E1,3.686533813E0,3.836521912E0,-8.341104584E0,9.893606906E0
1.318555779E1,3.799548798E0,4.145180054E0,-1.077100159E1,1.215045530E1
1.319557479E1,2.903362427E0,4.193529510E0,-1.199770065E1,1.303687171E1
1.320559179E1,1.706601105E0,3.950734406E0,-1.241114090E1,1.313610323E1
1.321560879E1,1.169068909E0,3.572920074E0,-1.231399292E1,1.287504958E1
1.322562579E1,1.333576813E0,3.260669403E0,-1.150028503E1,1.202775739E1
1.323564279E1,1.887574768E0,3.127745819E0,-1.013841705E1,1.077651301E1
1.324565979E1,2.570454712E0,3.037184143E0,-8.658594360E0,9.529059830E0
1.325567679E1,3.216062164E0,2.962339783E0,-7.337741089E0,8.541718628E0
1.326569379E1,4.225712585E0,2.838996277E0,-6.715335388E0,8.426878194E0
1.327571079E1,5.598208466E0,2.594404907E0,-6.490951996E0,8.955631338E0
1.328572779E1,7.102280731E0,2.226619720E0,-6.181695099E0,9.675411167E0
1.329574479E1,8.443940735E0,1.799408112E0,-5.589227142E0,1.028481719E1
1.330576179E1,9.317075043E0,1.502725067E0,-4.985682220E0,1.067347634E1
1.331577879E1,9.461225281E0,1.505569153E0,-4.288432159E0,1.049629328E1
1.332579579E1,9.081015930E0,1.770218811E0,-4.025878143E0,1.008990683E1
1.333581279E1,8.841963043E0,2.224823456E0,-5.295537872E0,1.054385467E1
1.334582979E1,9.442065125E0,2.751727753E0,-7.407945099E0,1.231268655E1
1.335584679E1,1.114163086E1,3.290307770E0,-9.625733185E0,1.508697461E1
1.336586379E1,1.278775772E1,3.753594360E0,-1.216490295E1,1.804441969E1
1.337588079E1,1.242356506E1,3.981420593E0,-1.374935806E1,1.895366788E1
1.338589779E1,7.910749512E0,3.457510071E0,-1.019949005E1,1.336278156E1
1.339591479E1,2.202968903E0,2.511477356E0,-6.265221405E0,7.100252795E0
1.340593179E1,-6.662644958E-1,1.828896790E0,-6.723568268E0,6.999652998E0
1.341594879E1,8.346643066E-1,1.076112213E0,-7.415429535E0,7.539448069E0
1.342596579E1,4.735702057E0,7.920030212E-1,-8.762628021E0,9.991886338E0
1.343598279E1,6.516698456E0,1.182840271E0,-6.889423370E0,9.556705721E0
1.344599979E1,6.056705017E0,1.871408386E0,-3.362457733E0,7.175790341E0
1.345601679E1,6.126310272E0,2.104473724E0,-1.141376495E0,6.577478811E0
1.346603379E1,8.279133453E0,1.595382385E0,-7.512876892E-1,8.464852561E0
1.347605079E1,1.116632950E1,7.207511902E-1,-1.932331696E0,1.135518835E1
1.348606779E1,1.248074615E1,-1.380130005E-1,-4.562512207E-1,1.248984537E1
1.349608479E1,1.269105881E1,-1.338217163E-1,2.430944824E-1,1.269409220E1
1.350610179E1,1.167107986E1,4.451742554E-1,-9.017248535E-1,1.171432427E1
1.351611879E1,1.124656265E1,9.473799133E-1,-2.042652283E0,1.146974841E1
1.352613579E1,1.106484055E1,1.031654663E0,-2.812651062E0,1.146324621E1
1.353615279E1,9.994117126E0,1.114432526E0,-3.127296753E0,1.053111210E1
1.354616979E1,8.826245728E0,1.352138214E0,-3.078348541E0,9.444952151E0
1.355618679E1,8.003556519E0,1.500030670E0,-2.676883392E0,8.571622580E0
1.356620342E1,7.523355103E0,1.492845612E0,-2.716401215E0,8.136848012E0
1.357622042E1,7.118746490E0,1.485660553E0,-3.021616516E0,7.874890808E0
1.358623742E1,6.606811066E0,1.580862579E0,-3.650458832E0,7.711999004E0
1.359625442E1,6.282734985E0,1.730551300E0,-5.107229462E0,8.279574836E0
1.360627142E1,6.148464203E0,1.831441498E0,-6.264922028E0,8.966997158E0
1.361628842E1,6.272855530E0,1.942211151E0,-7.441924438E0,9.924874810E0
1.362630542E1,6.774013367E0,2.082768860E0,-8.542435913E0,1.109947722E1
1.363632242E1,7.584877167E0,2.061662750E0,-8.886121216E0,1.186355618E1
1.364633942E1,8.554411011E0,1.847907257E0,-8.565937042E0,1.224614169E1
1.365635642E1,9.197324066E0,1.752405853E0,-9.287137299E0,1.318759324E1
1.366637342E1,9.473200378E0,1.803898773E0,-9.990524597E0,1.388546571E1
1.367639042E1,9.486822052E0,1.981878662E0,-1.026999344E1,1.412092068E1
1.368640742E1,9.723928986E0,2.393073578E0,-1.066322571E1,1.462825959E1
1.369642442E1,1.086006638E1,2.666405182E0,-1.046967819E1,1.531877670E1
1.370644142E1,1.249511627E1,2.534679108E0,-8.896898804E0,1.554693980E1
1.371645842E1,1.364906662E1,1.681303711E0,-5.736221466E0,1.490060531E1
1.372647542E1,1.316706894E1,8.083190918E-1,-3.449726257E0,1.363545729E1
1.373649242E1,9.540260925E0,9.719288635E-1,-1.548978882E0,9.713936371E0
1.374650942E1,3.905079346E0,1.957928467E0,-8.352630615E-2,4.369222496E0
1.375652642E1,3.891906738E-1,2.818488922E0,-7.346722412E-1,2.938552788E0
1.376654342E1,3.379971313E-1,3.334166565E0,-3.744613037E0,5.025239849E0
1.377656042E1,1.344204712E0,3.669918365E0,-7.283703461E0,8.266046408E0
1.378657742E1,1.721120911E0,3.968247986E0,-1.036998550E1,1.123591779E1
1.379659442E1,1.414558411E0,4.120032349E0,-1.263717087E1,1.336688930E1
1.380661142E1,9.635462952E-1,3.843856659E0,-1.325164307E1,1.383147496E1
1.381662842E1,1.278940430E0,3.262016602E0,-1.253223907E1,1.301281896E1
1.382664542E1,2.351310425E0,2.719095612E0,-1.109852051E1,1.166616043E1
1.383666242E1,3.632645874E0,2.495310974E0,-9.270970917E0,1.026516413E1
1.384667942E1,4.929698639E0,2.343526611E0,-7.655679932E0,9.402312527E0
1.385669642E1,6.166426849E0,2.231260071E0,-6.333928528E0,9.117126312E0
1.386671342E1,7.306905212E0,2.012564850E0,-4.955445099E0,9.055259090E0
1.387673042E1,8.341553650E0,1.681154022E0,-3.667223969E0,9.265868970E0
1.388674742E1,9.024583282E0,1.386267242E0,-3.100352783E0,9.642459628E0
1.389676442E1,9.471104736E0,1.185534668E0,-3.367996216E0,1.012179410E1
1.390678142E1,9.934990082E0,1.171014862E0,-4.118086395E0,1.081822256E1
1.391679842E1,1.036339920E1,1.343905334E0,-5.341342621E0,1.173610095E1
1.392681542E1,1.066906357E1,1.694027252E0,-5.769602051E0,1.224691608E1
1.393683242E1,1.028496231E1,2.047592010E0,-5.380411377E0,1.178651388E1
1.394684942E1,1.030681686E1,2.361339569E0,-6.856791229E0,1.260245946E1
1.395686642E1,1.126078308E1,2.699486389E0,-1.008497818E1,1.535575616E1
1.396688342E1,1.156405243E1,2.872526550E0,-1.329595093E1,1.785387993E1
1.397690042E1,9.800719299E0,2.812501373E0,-1.465317856E1,1.785160790E1
1.398691742E1,6.188730469E0,2.208657074E0,-1.123129440E1,1.301232204E1
1.399693442E1,2.889441376E0,1.508862305E0,-8.699908447E0,9.290529797E0
1.400695142E1,1.840722198E0,9.788145447E-1,-7.145091705E0,7.443028389E0
1.401696842E1,4.427942047E0,1.066532135E0,-8.135881348E0,9.323986640E0
1.402698542E1,7.053931274E0,1.383423157E0,-8.504714355E0,1.113561729E1
1.403700242E1,7.130422211E0,1.505569153E0,-5.947432251E0,9.406466380E0
1.404701942E1,8.073311462E0,1.769769745E0,-4.000880127E0,9.182455266E0
1.405703642E1,1.056922119E1,1.902393951E0,-3.487747192E0,1.129123199E1
1.406705342E1,1.231668732E1,1.683249664E0,-3.052751770E0,1.280052379E1
1.407707042E1,1.123623413E1,1.195863190E0,-2.066153412E0,1.148703774E1
1.408708742E1,8.414302368E0,7.607180786E-1,-1.679058380E0,8.613850091E0
1.409710442E1,6.505920868E0,6.153703308E-1,-2.474653931E0,6.987817904E0
1.410712142E1,6.160439301E0,9.452842712E-1,-3.761976929E0,7.279906946E0
1.411713842E1,6.386469269E0,1.459614716E0,-4.612508240E0,8.012034517E0
1.412715542E1,6.010451202E0,1.913470917E0,-5.164410553E0,8.152179522E0
1.413717242E1,5.357209625E0,2.249372406E0,-6.115832062E0,8.435803044E0
1.414718942E1,5.116659851E0,2.402354279E0,-6.951544189E0,8.959658516E0
1.415720642E1,5.371280365E0,2.430944824E0,-7.734266510E0,9.725174751E0
1.416722342E1,6.067183228E0,2.365530853E0,-8.417296143E0,1.064224238E1
1.417724042E1,7.142846375E0,2.144440613E0,-8.815318451E0,1.154680559E1
1.418725742E1,8.068072357E0,1.821112976E0,-8.828790436E0,1.209784215E1
1.419727442E1,8.868607635E0,1.577120361E0,-9.694140930E0,1.323313562E1
1.420729142E1,9.757459259E0,1.484313354E0,-1.048120422E1,1.439676489E1
1.421730842E1,1.044093796E1,1.507066040E0,-1.063014450E1,1.497612786E1
1.422732542E1,1.079270645E1,1.732048187E0,-1.041189835E1,1.509603029E1
1.423734242E1,1.149504593E1,2.069147186E0,-9.911339264E0,1.531835817E1
1.424735942E1,1.257040970E1,1.991458740E0,-8.384065247E0,1.524052683E1
1.425737642E1,1.341824661E1,1.557660828E0,-6.716682587E0,1.508606888E1
1.426739342E1,1.322829163E1,9.117539978E-1,-4.570745087E0,1.402535937E1
1.427741042E1,1.134251312E1,7.517367554E-1,-2.297871552E0,1.159732408E1
1.428742742E1,8.664282532E0,1.213526459E0,-1.351240082E0,8.852586516E0
1.429744442E1,6.143823853E0,2.062560883E0,-1.634451141E0,6.683723473E0
1.430746142E1,3.862418060E0,2.932102661E0,-3.270997925E0,5.849352675E0
1.431747842E1,1.525777130E0,3.674259338E0,-5.504802704E0,6.791982799E0
1.432749542E1,-4.034111023E-1,4.389771423E0,-7.985144806E0,9.121149666E0
1.433751242E1,-9.984237671E-2,4.788841553E0,-1.082219513E1,1.183481640E1
1.434752942E1,1.169368286E0,4.688849487E0,-1.231369354E1,1.322799230E1
1.435754642E1,1.885479126E0,4.211941223E0,-1.239961487E1,1.323049241E1
1.436756342E1,2.077380066E0,3.628903656E0,-1.172766220E1,1.245080360E1
1.437758042E1,2.006726990E0,3.264860687E0,-1.054586975E1,1.122058988E1
1.438759742E1,2.475102997E0,3.162922668E0,-9.100026398E0,9.946893741E0
1.439761442E1,3.240611115E0,3.123404846E0,-7.215595093E0,8.504236049E0
1.440763142E1,3.711082764E0,3.239862671E0,-5.689219208E0,7.525693363E0
1.441764842E1,4.404141541E0,3.491938477E0,-5.309907990E0,7.732090267E0
1.442766542E1,5.145849152E0,3.561094666E0,-5.452261963E0,8.299898748E0
1.443768242E1,5.538931732E0,3.405418396E0,-5.921236725E0,8.794184643E0
1.444769942E1,5.700745239E0,3.156186676E0,-6.902446289E0,9.492300848E0
1.445771642E1,6.083948364E0,3.015778656E0,-7.982001343E0,1.047958463E1
1.446773342E1,6.701713715E0,2.813848572E0,-8.511150970E0,1.119242607E1
1.447775042E1,7.413184204E0,2.602787476E0,-8.051606598E0,1.124980762E1
1.448776742E1,8.001311188E0,2.544109497E0,-7.250173187E0,1.109317291E1
1.449778442E1,7.994126129E0,2.682421875E0,-6.129154358E0,1.042439316E1
1.450780142E1,7.421267395E0,2.874622192E0,-4.318369904E0,9.054666262E0
1.451781842E1,6.306685181E0,2.923570404E0,-2.780617676E0,7.486880294E0
1.452783542E1,5.871240692E0,2.975512390E0,-3.971241760E0,7.687385925E0
1.453785242E1,7.124284973E0,3.041824493E0,-7.033423920E0,1.046313455E1
1.454786942E1,8.842561798E0,3.048560486E0,-9.661808167E0,1.344749632E1
1.455788642E1,9.833052063E0,3.099754028E0,-1.177271851E1,1.564909866E1
1.456790342E1,9.796528015E0,3.195405121E0,-1.267309616E1,1.633370568E1
1.457792042E1,8.143814850E0,3.352727966E0,-1.149070496E1,1.447752760E1
1.458793742E1,4.978197784E0,3.178639984E0,-7.788753204E0,9.775013136E0
1.459795442E1,2.297572174E0,2.593207397E0,-4.647984467E0,5.797182255E0
1.460797142E1,1.402283936E0,1.812131653E0,-3.074606323E0,3.834504584E0
1.461798842E1,3.975582733E0,1.337319031E0,-4.851261749E0,6.413144378E0
1.462800542E1,7.788603516E0,1.246158600E0,-7.171885986E0,1.066073190E1
1.463802242E1,9.130712585E0,1.346150665E0,-7.280410309E0,1.175527151E1
1.464803942E1,8.786428528E0,1.767524414E0,-5.880222015E0,1.071925743E1
1.465805642E1,9.215137024E0,2.211650848E0,-4.151167603E0,1.034612692E1
1.466807342E1,1.030217651E1,2.321372681E0,-3.487597504E0,1.112146341E1
1.467809042E1,1.083177521E1,1.875599670E0,-3.262465668E0,1.146686141E1
1.468810742E1,1.044917084E1,1.231339417E0,-3.143014069E0,1.098088819E1
1.469812442E1,9.538015594E0,8.970845032E-1,-3.245999908E0,1.011508861E1
1.470814142E1,8.424481201E0,9.354048157E-1,-3.595074005E0,9.207139772E0
1.471815842E1,7.784711609E0,1.287023621E0,-3.966900787E0,8.831447587E0
1.472817542E1,7.572902069E0,1.656904449E0,-4.248764648E0,8.840032757E0
1.473819242E1,7.119045868E0,1.835932159E0,-4.583618317E0,8.663776188E0
1.474820942E1,6.511758728E0,1.909429321E0,-5.056335297E0,8.462591134E0
1.475822642E1,6.128854980E0,1.939516754E0,-5.483397217E0,8.449392502E0
1.476824342E1,6.039790192E0,1.990261230E0,-5.976621552E0,8.726981752E0
1.477826042E1,6.271508331E0,2.028581543E0,-6.750212860E0,9.434634783E0
1.478827742E1,6.962022400E0,1.964814148E0,-7.117998047E0,1.014870173E1
1.479829442E1,7.917036438E0,1.832040253E0,-7.011120300E0,1.073273708E1
1.480831142E1,8.861721954E0,1.748064880E0,-7.082072754E0,1.147787442E1
1.481832842E1,9.344917145E0,1.775008850E0,-7.207811279E0,1.193443238E1
1.482834542E1,9.084159393E0,1.880240021E0,-6.945257263E0,1.158852246E1
1.483836242E1,7.938890991E0,2.073188782E0,-6.904691620E0,1.072375253E1
1.484837942E1,6.646478577E0,2.423460388E0,-7.268884277E0,1.014324979E1
1.485839642E1,6.554569702E0,2.700683899E0,-7.890391846E0,1.060727868E1
1.486841342E1,8.153694305E0,2.884052582E0,-8.389753418E0,1.204941710E1
1.487843042E1,9.989177399E0,2.934946747E0,-8.459658051E0,1.341504349E1
1.488844742E1,1.041204803E1,2.715802460E0,-7.288343811E0,1.299639499E1
1.489846442E1,9.335486755E0,2.546803894E0,-5.288502502E0,1.102750116E1
1.490848142E1,7.355703735E0,2.419269104E0,-3.786525879E0,8.619571838E0
1.491849842E1,4.810696106E0,2.346969452E0,-3.469036102E0,6.378500930E0
1.492851542E1,2.163900146E0,2.601889343E0,-4.146377563E0,5.352077998E0
1.493853242E1,9.108558655E-1,3.177292786E0,-6.176605682E0,7.005376907E0
1.494854942E1,1.211580505E0,3.757336578E0,-8.607251129E0,9.469439133E0
1.495856642E1,1.821412354E0,4.179758148E0,-1.053733749E1,1.148143731E1
1.496858342E1,2.590812378E0,4.279899902E0,-1.172826096E1,1.275076300E1
1.497860042E1,3.315754852E0,4.007167053E0,-1.189950485E1,1.298652508E1
1.498861742E1,3.431464233E0,3.710633698E0,-1.142169846E1,1.248995376E1
1.499863442E1,3.268453217E0,3.619922333E0,-1.056577835E1,1.163710859E1
1.500865142E1,3.359613647E0,3.549718323E0,-9.238638153E0,1.045179118E1
1.501866842E1,3.601959686E0,3.506757660E0,-7.989336090E0,9.439330168E0
1.502868542E1,4.099075928E0,3.396137695E0,-7.118746490E0,8.888910299E0
1.503870242E1,5.066065063E0,3.176394653E0,-6.822961578E0,9.072337236E0
1.504871942E1,6.421197052E0,2.836451569E0,-7.012617188E0,9.922400360E0
1.505873642E1,7.754175110E0,2.322420502E0,-6.948550415E0,1.066785927E1
1.506875342E1,8.576864319E0,1.884431305E0,-6.377487946E0,1.085292750E1
1.507877042E1,8.713380432E0,1.704056396E0,-5.740562439E0,1.057264697E1
1.508878742E1,8.553063812E0,1.858535156E0,-5.540278931E0,1.035875205E1
1.509880442E1,8.328381042E0,2.274969177E0,-6.061345367E0,1.054880672E1
1.510882142E1,8.037086792E0,2.760409698E0,-6.709198151E0,1.082718641E1
1.511883842E1,8.233777771E0,3.123704224E0,-7.194938049E0,1.137188454E1
1.512885542E1,9.081165619E0,3.395988007E0,-8.112230530E0,1.264154214E1
1.513887242E1,1.030457153E1,3.716172180E0,-1.054856415E1,1.520744343E1
1.514888942E1,1.008018814E1,3.818409576E0,-1.255259674E1,1.654563778E1
1.515890642E1,6.515650635E0,3.267555084E0,-1.067085983E1,1.292276553E1
1.516892342E1,1.573078766E0,2.178719330E0,-6.925348663E0,7.428448615E0
1.517894042E1,-1.388512573E0,8.363108826E-1,-5.312901764E0,5.554665445E0
1.518895742E1,1.453028412E0,2.080673218E-1,-6.337820435E0,6.505578486E0
1.519897442E1,5.719007263E0,2.908451843E-1,-5.993087311E0,8.289072959E0
1.520899142E1,6.566694489E0,6.192622375E-1,-3.490591278E0,7.462518991E0
1.521900842E1,6.508914642E0,1.031504974E0,-1.772464142E0,6.824338903E0
1.522902542E1,8.715027008E0,1.284179535E0,-1.280287628E0,8.901682383E0
1.523904242E1,1.219214630E1,1.188827820E0,-1.108594666E0,1.230002948E1
1.524905942E1,1.397344208E1,9.611512756E-1,-1.338067474E0,1.407022814E1
1.525907642E1,1.274704239E1,8.876541138E-1,-1.497935028E0,1.286541211E1
1.526909342E1,1.053763687E1,1.071172485E0,-2.158960419E0,1.080973225E1
1.527911042E1,9.431886292E0,1.399888916E0,-3.526965637E0,1.016659503E1
1.528912742E1,9.256451111E0,1.713486786E0,-4.515659637E0,1.044074260E1
1.529914442E1,8.863667908E0,1.952240295E0,-5.070406036E0,1.039638727E1
1.530916142E1,7.751929779E0,2.052082672E0,-5.291795654E0,9.607630293E0
1.531917842E1,6.609206085E0,2.046843567E0,-5.528004456E0,8.856071755E0
1.532919542E1,6.112089844E0,2.004631348E0,-5.758525085E0,8.633469769E0
1.533921242E1,6.217021637E0,2.003733215E0,-5.911956024E0,8.810081093E0
1.534922942E1,6.645430756E0,1.995650024E0,-6.311175842E0,9.379515417E0
1.535924642E1,7.383396149E0,1.903292084E0,-6.360273743E0,9.929256847E0
1.536926342E1,7.845784607E0,1.708397369E0,-6.255641327E0,1.017880180E1
1.537928042E1,7.854017487E0,1.433119812E0,-6.719077606E0,1.043481801E1
1.538929742E1,7.470964050E0,1.104403381E0,-6.629713440E0,1.004928410E1
1.539931442E1,7.056475983E0,9.782157898E-1,-6.479725342E0,9.630036341E0
1.540933142E1,7.169640656E0,1.181792450E0,-7.862699432E0,1.070618620E1
1.541934842E1,7.594906311E0,1.525777130E0,-8.913214874E0,1.180914887E1
1.542936542E1,7.888146515E0,1.948348389E0,-9.225615234E0,1.229353055E1
1.543938242E1,8.390801239E0,2.519710236E0,-9.249715118E0,1.274016149E1
1.544939942E1,9.500593414E0,2.800825653E0,-8.774902496E0,1.323271754E1
1.545941642E1,1.092383377E1,2.604284363E0,-7.948471069E0,1.375829327E1
1.546943342E1,1.152618118E1,2.003134460E0,-6.726112976E0,1.349466547E1
1.547945042E1,1.029603928E1,1.498683472E0,-5.304369507E0,1.167864773E1
1.548946742E1,7.065756683E0,1.676214294E0,-3.847449188E0,8.218118831E0
1.549948442E1,4.237238617E0,1.929337921E0,-3.047213287E0,5.564354835E0
1.550950142E1,3.609893188E0,2.115550690E0,-3.761078796E0,5.626064101E0
1.551951842E1,3.673810272E0,2.488874359E0,-5.541177063E0,7.099015476E0
1.552953542E1,3.014880524E0,3.181633759E0,-7.699239349E0,8.859491210E0
1.553955242E1,2.905607758E0,3.654799805E0,-1.005369324E1,1.108498380E1
1.554956942E1,3.544179840E0,3.793112183E0,-1.190803711E1,1.299039101E1
1.555958642E1,3.727847900E0,3.666774902E0,-1.252280869E1,1.357066047E1
1.556960304E1,3.471431122E0,3.440595245E0,-1.195503937E1,1.291555248E1
1.557962004E1,3.181783447E0,3.291804657E0,-1.072115524E1,1.165773964E1
1.558963704E1,2.794089661E0,3.349285126E0,-9.247918854E0,1.022490347E1
1.559965404E1,2.506387939E0,3.530258789E0,-7.774832153E0,8.899029308E0
1.560967104E1,2.811004486E0,3.595972137E0,-6.909781036E0,8.281173577E0
1.561968804E1,3.733087006E0,3.468736725E0,-6.863976288E0,8.548815330E0
1.562970504E1,4.461472321E0,3.215313721E0,-7.151228943E0,9.021255621E0
1.563972204E1,4.804858246E0,2.811603241E0,-7.272476807E0,9.158640426E0
1.564973904E1,5.197940826E0,2.390379181E0,-7.301666107E0,9.276143024E0
1.565975604E1,5.807024231E0,1.995799713E0,-7.184459839E0,9.450989900E0
1.566977304E1,6.587201843E0,1.670675812E0,-6.689888306E0,9.536088891E0
1.567979004E1,7.341034241E0,1.432970123E0,-5.396128693E0,9.222927516E0
1.568980704E1,8.066874847E0,1.390757904E0,-4.243974609E0,9.220628928E0
1.569982404E1,9.295819244E0,1.537003784E0,-4.344715118E0,1.037550893E1
1.570984104E1,1.074345886E1,2.003433838E0,-5.857768707E0,1.239956087E1
1.571985804E1,1.174457703E1,2.693049774E0,-7.213948517E0,1.404381215E1
1.572987504E1,1.171688461E1,3.356470184E0,-8.704249420E0,1.497715711E1
1.573989204E1,1.110375961E1,3.678300934E0,-1.112426697E1,1.614226412E1
1.574990904E1,9.182953949E0,3.215164032E0,-1.186103485E1,1.534105833E1
1.575992604E1,5.739065552E0,1.842368774E0,-8.376580811E0,1.031980146E1
1.576994304E1,3.122057648E0,1.419049072E-1,-5.791606293E0,6.581039766E0
1.577996004E1,3.482208710E0,-1.367855530E0,-6.561305695E0,7.552982104E0
1.578997704E1,5.374423828E0,-1.704804840E0,-9.001231842E0,1.062134482E1
1.579999404E1,4.630171509E0,-4.185296631E-1,-8.312064972E0,9.523868929E0
1.581001104E1,3.198997650E0,1.398691406E0,-4.994663544E0,6.093979614E0
1.582002804E1,5.533692627E0,2.627785492E0,-3.223396912E0,6.922232178E0
1.583004504E1,9.888436890E0,2.692151642E0,-2.607727203E0,1.057492817E1
1.584006204E1,1.397508865E1,1.883982239E0,-2.134411469E0,1.426212482E1
1.585007904E1,1.557945236E1,7.640112305E-1,-1.396146698E0,1.566053239E1
1.586009604E1,1.315823730E1,-4.445755005E-2,-1.083746338E-1,1.315875870E1
1.587011304E1,9.945168915E0,-1.974394226E-1,2.245330811E-1,9.949662415E0
1.588013004E1,9.488618317E0,2.939886475E-1,-1.372046814E0,9.591810014E0
1.589014704E1,9.944420471E0,9.584568787E-1,-3.090922394E0,1.045772152E1
1.590016404E1,8.804540863E0,1.323847046E0,-3.885619812E0,9.714450686E0
1.591018104E1,7.390431519E0,1.649869080E0,-4.821324005E0,8.976954449E0
1.592019804E1,6.506968689E0,1.888023834E0,-5.888754272E0,8.976786864E0
1.593021504E1,6.035299530E0,1.988914032E0,-6.809190216E0,9.313736675E0
1.594023204E1,5.849086761E0,1.974543915E0,-7.305258636E0,9.564384108E0
1.595024904E1,6.396498413E0,1.940564575E0,-7.720644836E0,1.021221521E1
1.596026604E1,7.229366455E0,1.804048462E0,-7.678881683E0,1.069969879E1
1.597028304E1,8.074658661E0,1.620230713E0,-7.715405731E0,1.128506737E1
1.598030004E1,8.915609894E0,1.393452301E0,-7.688162384E0,1.185485765E1
1.599031704E1,9.459578705E0,1.076561279E0,-7.536976776E0,1.214284285E1
1.600033404E1,9.670939178E0,8.086184692E-1,-7.253017273E0,1.211557625E1
1.601035104E1,9.557475128E0,7.864645386E-1,-7.731272736E0,1.231813441E1
1.602036804E1,9.027577057E0,9.726773071E-1,-8.117020569E0,1.217905052E1
1.603038504E1,8.617280273E0,1.327289886E0,-7.950417023E0,1.179950629E1
1.604040204E1,8.800648956E0,1.885479126E0,-7.903115387E0,1.197771624E1
1.605041904E1,1.014275803E1,2.308200073E0,-7.219037933E0,1.266166800E1
1.606043604E1,1.191626999E1,2.302661591E0,-6.170468445E0,1.361522757E1
1.607045304E1,1.256532028E1,1.845961304E0,-5.012775879E0,1.365367236E1
1.608047004E1,1.058868073E1,1.411414948E0,-3.536545715E0,1.125252893E1
1.609048704E1,6.578070831E0,1.537452850E0,-2.340532837E0,7.149326618E0
1.610050404E1,3.442690887E0,1.991458740E0,-2.663561096E0,4.786709326E0
1.611052104E1,2.753673706E0,2.406246185E0,-4.917873230E0,6.128475886E0
1.612053804E1,3.319646759E0,2.724933472E0,-7.379055176E0,8.537902103E0
1.613055504E1,3.503165131E0,3.141367493E0,-9.502838745E0,1.060397566E1
1.614057204E1,2.647095337E0,3.486998749E0,-1.060065582E1,1.146909665E1
1.615058904E1,1.390907593E0,3.649111633E0,-1.105076981E1,1.172050139E1
1.616060604E1,1.099313965E0,3.609444122E0,-1.134206406E1,1.195320020E1
1.617062304E1,1.695823517E0,3.485352173E0,-1.128488297E1,1.193197723E1
1.618064004E1,1.964814148E0,3.453767853E0,-1.039588165E1,1.112939182E1
1.619065704E1,2.038011932E0,3.517834625E0,-9.229956207E0,1.008567026E1
1.620067404E1,2.618804169E0,3.504662018E0,-8.292755127E0,9.376064138E0
1.621069104E1,3.470832367E0,3.405418396E0,-7.632029114E0,9.049387834E0
1.622070804E1,4.150119781E0,3.240910492E0,-7.283104706E0,8.987247030E0
1.623072504E1,4.761448517E0,2.931054840E0,-7.317982178E0,9.209524288E0
1.624074204E1,5.541476440E0,2.445913696E0,-7.245083771E0,9.443605974E0
1.625075904E1,6.684499512E0,1.965263214E0,-6.953789520E0,9.843778843E0
1.626077604E1,7.832612000E0,1.526226196E0,-6.561754761E0,1.033130208E1
1.627079304E1,8.776998138E0,1.132694550E0,-5.448968811E0,1.039278376E1
1.628081004E1,1.003453308E1,1.002914429E0,-4.513713684E0,1.104858827E1
1.629082704E1,1.143651764E1,1.477427673E0,-5.474116516E0,1.276490031E1
1.630084404E1,1.194800400E1,2.314037933E0,-7.078330536E0,1.407879023E1
1.631086104E1,1.028271698E1,3.344345398E0,-8.185128937E0,1.356153569E1
1.632087804E1,8.503965912E0,4.164340210E0,-8.949439545E0,1.302887692E1
1.633089504E1,8.098459167E0,4.526437225E0,-9.552984467E0,1.331665074E1
1.634091204E1,8.094866638E0,4.146976318E0,-9.956545258E0,1.348543926E1
1.635092904E1,6.911128235E0,2.625390472E0,-8.015830994E0,1.090458230E1
1.636094604E1,4.598287811E0,5.264552307E-1,-8.306376801E0,9.508801263E0
1.637096304E1,2.431244202E0,-1.289119263E0,-1.002225861E1,1.039319221E1
1.638098004E1,2.534230042E0,-1.639241180E0,-1.052910461E1,1.095314921E1
1.639099704E1,3.933370514E0,-2.851570129E-1,-8.486751709E0,9.358294326E0
1.640101404E1,5.595065002E0,1.752106476E0,-5.764362946E0,8.222074535E0
1.641103104E1,7.645052032E0,2.894530792E0,-3.480861511E0,8.884904386E0
1.642104804E1,9.599687347E0,2.656974792E0,-2.000889130E0,1.015958018E1
1.643106504E1,1.093027039E1,1.542542267E0,-1.661993866E0,1.116299561E1
1.644108204E1,1.091140961E1,4.382885742E-1,-2.057920532E0,1.111242518E1
1.645109904E1,1.010353958E1,2.568658447E-1,-2.585124207E0,1.043217903E1
1.646111604E1,9.697883148E0,1.051563263E0,-3.285667419E0,1.029321783E1
1.647113304E1,9.391769714E0,1.859283600E0,-3.868555298E0,1.032608319E1
1.648115004E1,8.796158295E0,2.258054352E0,-4.363725586E0,1.007538144E1
1.649116704E1,8.003556519E0,2.225272522E0,-4.539011078E0,9.466328555E0
1.650118404E1,7.210805054E0,2.023941193E0,-5.160069580E0,9.094963746E0
1.651120104E1,6.512357483E0,1.845961304E0,-5.791905670E0,8.908678040E0
1.652121804E1,5.962850189E0,1.703158264E0,-6.092031555E0,8.693053487E0
1.653123504E1,5.752238159E0,1.622775421E0,-6.178701324E0,8.596394242E0
1.654125304E1,6.054160309E0,1.613494720E0,-6.459667053E0,8.999084437E0
1.655127004E1,6.714886322E0,1.529669037E0,-6.292015686E0,9.328400028E0
1.656128604E1,7.172933807E0,1.385518799E0,-6.133195953E0,9.538696680E0
1.657130467E1,7.138804779E0,1.327589264E0,-6.574927368E0,9.795646830E0
1.658132167E1,6.990912323E0,1.487007751E0,-7.344177704E0,1.024797508E1
1.659133867E1,6.842121735E0,1.769320679E0,-8.094118195E0,1.074522568E1
1.660135567E1,6.795867920E0,2.088906097E0,-8.285570068E0,1.091778461E1
1.661137267E1,7.683971100E0,2.399360504E0,-8.265062714E0,1.153740024E1
1.662138967E1,9.282946014E0,2.632126465E0,-8.076754303E0,1.258312904E1
1.663140667E1,1.053464310E1,2.678829346E0,-7.735763397E0,1.334154666E1
1.664142367E1,1.000399658E1,2.405647430E0,-6.825655975E0,1.234733440E1
1.665144067E1,8.000413055E0,2.001787262E0,-5.291795654E0,9.798819447E0
1.666145767E1,5.955365753E0,1.717229004E0,-4.144581299E0,7.456058667E0
1.667147467E1,4.527784424E0,1.691183167E0,-4.209845581E0,6.409659282E0
1.668149167E1,3.177592163E0,2.122735748E0,-5.272934875E0,6.512061211E0
1.669150867E1,2.076182556E0,3.089126129E0,-7.353907471E0,8.242159264E0
1.670152567E1,1.600621490E0,4.084705811E0,-9.924062805E0,1.085052226E1
1.671154267E1,1.594484253E0,4.646188202E0,-1.172062683E1,1.270836489E1
1.672155967E1,1.914818115E0,4.624183960E0,-1.257654694E1,1.353584643E1
1.673157667E1,1.893861694E0,4.207300873E0,-1.262848892E1,1.344495538E1
1.674159367E1,1.792223053E0,3.604803772E0,-1.211146408E1,1.276300262E1
1.675161067E1,2.489024048E0,3.009491730E0,-1.149609375E1,1.214135300E1
1.676162767E1,3.499273224E0,2.620750122E0,-1.019365219E1,1.109160896E1
1.677164467E1,4.572541351E0,2.494562531E0,-8.850644989E0,1.026961018E1
1.678166167E1,5.310506744E0,2.528841248E0,-7.729775848E0,9.713184576E0
1.679167867E1,5.266198883E0,2.663710785E0,-6.386918335E0,8.696029648E0
1.680169567E1,4.991220703E0,2.909200287E0,-5.751938782E0,8.152332805E0
1.681171267E1,5.052892456E0,3.009491730E0,-5.995332642E0,8.398379375E0
1.682172967E1,5.529501343E0,2.761607208E0,-6.339467010E0,8.853852351E0
1.683174667E1,6.118975525E0,2.352507935E0,-6.720574493E0,9.388411824E0
1.684176367E1,6.410419464E0,1.859732666E0,-6.614744568E0,9.397176650E0
1.685178067E1,6.636748810E0,1.475631409E0,-6.154302063E0,9.170570140E0
