"Time (s)","Acceleration x (m/s^2)","Acceleration y (m/s^2)","Acceleration z (m/s^2)","Absolute acceleration (m/s^2)"
4.441958386E-3,2.619253235E0,4.977599030E0,-5.971232758E0,8.203206705E0
1.445795828E-2,2.687511292E0,4.782854004E0,-6.809938660E0,8.744922751E0
2.447495842E-2,3.128643951E0,4.753515015E0,-7.404053192E0,9.338325420E0
3.449095832E-2,3.592978363E0,4.870870972E0,-8.318202209E0,1.028724285E1
4.450795846E-2,3.839365997E0,4.976551208E0,-8.347092133E0,1.044895881E1
5.452395836E-2,3.920646973E0,4.999752960E0,-7.426955566E0,9.773876986E0
6.454095850E-2,3.971092072E0,5.163063354E0,-7.167395325E0,9.684954888E0
7.455695840E-2,4.036506042E0,5.268444214E0,-6.839127960E0,9.530139386E0
8.457320835E-2,3.973487091E0,5.196593628E0,-6.214626617E0,9.023013299E0
9.459020849E-2,3.592080231E0,5.079836426E0,-6.467450867E0,8.974168441E0
1.046062084E-1,3.298241272E0,4.934788055E0,-7.104226685E0,9.257459988E0
1.146232085E-1,3.934118958E0,5.008135529E0,-7.512727203E0,9.848846809E0
1.246392084E-1,5.170697479E0,5.250780945E0,-7.394772491E0,1.043980235E1
1.346562086E-1,6.056555328E0,5.284760284E0,-6.893315277E0,1.058906744E1
1.446722085E-1,6.168821869E0,5.032684479E0,-6.206543427E0,1.009472425E1
1.546892081E-1,5.826034698E0,4.795278168E0,-5.956114197E0,9.613150854E0
1.647062083E-1,5.459147644E0,4.838538208E0,-6.527625732E0,9.788955138E0
1.747222082E-1,5.545068970E0,5.118306427E0,-6.636000366E0,1.004894778E1
1.847392083E-1,6.002368011E0,5.566773834E0,-6.244115295E0,1.029593942E1
1.947552082E-1,6.206842804E0,5.884712677E0,-6.251599731E0,1.059420786E1
2.047722084E-1,5.834716644E0,5.915847931E0,-6.580465851E0,1.059923138E1
2.147882082E-1,5.241350555E0,5.529501343E0,-5.862558746E0,9.613362357E0
2.248052084E-1,5.223687286E0,5.007686462E0,-4.425547028E0,8.482293267E0
2.348212083E-1,5.843099213E0,4.837640076E0,-4.498445435E0,8.819329977E0
2.448382084E-1,6.206244049E0,4.844226379E0,-5.397625580E0,9.545593555E0
2.548552086E-1,6.106850739E0,4.827461243E0,-4.811145172E0,9.151236302E0
2.648712085E-1,6.058501282E0,4.891528015E0,-4.268673248E0,8.879980597E0
2.748882081E-1,6.234834595E0,5.053640900E0,-4.745731201E0,9.323862579E0
2.849042085E-1,6.311924286E0,5.107678528E0,-5.023254089E0,9.547871479E0
2.949212082E-1,6.120023346E0,4.939428406E0,-4.709057465E0,9.166671203E0
3.049372085E-1,5.876180420E0,4.709506531E0,-4.771627350E0,8.915008450E0
3.149542082E-1,5.763015747E0,4.597389679E0,-5.279371490E0,9.067530297E0
3.249702086E-1,5.582640839E0,4.572541351E0,-5.574258270E0,9.118463051E0
3.349872082E-1,5.426365814E0,4.564907227E0,-5.568270721E0,9.016066923E0
3.450042084E-1,5.466931458E0,4.680017853E0,-5.631738739E0,9.138182964E0
3.550202083E-1,5.658533020E0,4.932393036E0,-6.094426575E0,9.668998515E0
3.650372084E-1,5.975723419E0,5.132526855E0,-6.240971832E0,1.004996675E1
3.750532083E-1,6.131549377E0,5.197342072E0,-5.770799561E0,9.894967910E0
3.850702085E-1,6.067332916E0,5.158872070E0,-5.379064178E0,9.610453745E0
3.950862084E-1,5.743855591E0,5.098098450E0,-5.823789368E0,9.638413119E0
4.051032085E-1,5.272785187E0,5.014871521E0,-6.081703033E0,9.483581169E0
4.151192084E-1,4.933141479E0,4.925657043E0,-5.972879333E0,9.180047369E0
4.251362085E-1,4.908742218E0,4.929998016E0,-6.022426300E0,9.201643828E0
4.351532082E-1,5.023553467E0,5.049299927E0,-6.239474945E0,9.469031987E0
4.451692086E-1,5.124293976E0,5.268144836E0,-6.715784454E0,9.955576307E0
4.551862082E-1,5.173541565E0,5.534291382E0,-7.104526062E0,1.038596187E1
4.652022081E-1,5.396128693E0,5.761818237E0,-6.701564026E0,1.035508159E1
4.752192083E-1,5.392236786E0,5.795797577E0,-6.230194244E0,1.007386755E1
4.852352082E-1,4.885989532E0,5.560337219E0,-5.978866882E0,9.515098155E0
4.952522083E-1,4.266876984E0,5.240602112E0,-5.997727661E0,9.035645344E0
5.052682082E-1,4.065096588E0,5.082081757E0,-6.546187134E0,9.230662557E0
5.152852084E-1,4.232298889E0,4.991520081E0,-6.849755859E0,9.473477816E0
5.253022085E-1,4.421954498E0,4.948559418E0,-6.828949127E0,9.522419234E0
5.353182084E-1,4.582271118E0,4.971611481E0,-6.552773438E0,9.415570564E0
5.453352085E-1,4.642895050E0,5.028343506E0,-6.473139038E0,9.420310073E0
5.553512084E-1,4.597838745E0,5.053042145E0,-6.514453125E0,9.439886417E0
5.653682086E-1,4.473148041E0,5.041815491E0,-6.801107025E0,9.575176949E0
5.753842085E-1,4.172722778E0,5.066663818E0,-7.461383972E0,9.937552436E0
5.854012081E-1,3.880829773E0,5.025349731E0,-7.429649963E0,9.773161117E0
5.954182083E-1,3.538641357E0,5.007387085E0,-7.559579773E0,9.733609527E0
6.054342082E-1,3.366948395E0,4.982987823E0,-7.916138306E0,9.941416137E0
6.154512083E-1,3.615731049E0,4.949607239E0,-8.167465668E0,1.021173924E1
6.254672082E-1,4.121678925E0,4.908442841E0,-8.262667694E0,1.045718536E1
6.354842084E-1,4.441563721E0,4.959486694E0,-8.615783386E0,1.088832953E1
6.455002083E-1,4.641697540E0,5.030139771E0,-9.153614960E0,1.142962506E1
6.555172084E-1,4.726720734E0,5.096451874E0,-9.059161377E0,1.141858640E1
6.655332083E-1,4.344864807E0,5.105732574E0,-8.377478943E0,1.072979537E1
6.755502084E-1,3.637884979E0,5.038672028E0,-7.705675964E0,9.899488118E0
6.855672086E-1,3.192710724E0,4.999752960E0,-7.879314880E0,9.862785327E0
6.955832085E-1,3.021167450E0,5.055137787E0,-8.209079132E0,1.010301198E1
7.056002081E-1,2.899620209E0,5.058430939E0,-8.419541473E0,1.024129872E1
7.156162085E-1,2.974614258E0,4.940027161E0,-8.332123260E0,1.013294016E1
7.256332082E-1,3.059338074E0,4.853058014E0,-8.489895172E0,1.024646483E1
7.356492085E-1,3.046015778E0,4.894072723E0,-8.722062378E0,1.045488078E1
7.456662082E-1,2.909200287E0,4.959636383E0,-8.490493927E0,1.025426382E1
7.556822086E-1,2.714155884E0,5.023852844E0,-8.490942993E0,1.023239231E1
7.656992082E-1,2.787653046E0,4.984185333E0,-8.600365448E0,1.032372989E1
7.757162084E-1,3.101550293E0,4.775369568E0,-8.755592651E0,1.044433681E1
7.857322083E-1,3.558250580E0,4.551135864E0,-8.997938690E0,1.069284272E1
7.957492084E-1,3.941453705E0,4.402045898E0,-8.387358398E0,1.025967087E1
8.057652083E-1,3.956422577E0,4.451592865E0,-8.157137146E0,1.009994282E1
8.157822085E-1,3.819158020E0,4.645439758E0,-7.966433716E0,9.981490103E0
8.257982084E-1,3.555855560E0,4.799469452E0,-7.398365021E0,9.508670820E0
8.358152085E-1,3.126099243E0,4.828359375E0,-6.735094299E0,8.857033699E0
8.458312084E-1,2.771187286E0,4.836891632E0,-6.730753326E0,8.739453071E0
8.558482085E-1,2.885549469E0,4.937033386E0,-7.752528534E0,9.633399870E0
8.658652082E-1,3.472628632E0,5.141208801E0,-9.034313049E0,1.095947033E1
8.758812086E-1,4.390819244E0,5.370681610E0,-9.909093933E0,1.209601824E1
8.858982082E-1,5.207071838E0,5.502108307E0,-9.802515564E0,1.238854731E1
8.959142081E-1,5.631738739E0,5.574857025E0,-8.907826080E0,1.192245267E1
9.059312083E-1,5.462440796E0,5.667813721E0,-7.491172028E0,1.086646355E1
9.159472082E-1,4.490811310E0,5.612877960E0,-5.860313416E0,9.274430362E0
9.259642083E-1,3.160078583E0,5.338049469E0,-5.200934601E0,8.095096633E0
9.359812085E-1,2.663112030E0,5.060376892E0,-5.730383606E0,8.095484930E0
9.459972084E-1,3.390449524E0,4.953199768E0,-7.071295166E0,9.275373375E0
9.560142085E-1,4.621788940E0,5.017266541E0,-8.875343628E0,1.119399933E1
9.660302084E-1,5.681285706E0,5.157225494E0,-9.355694733E0,1.209971099E1
9.760472085E-1,5.813011780E0,5.125192108E0,-8.328081665E0,1.137609970E1
9.860632084E-1,4.782704315E0,4.922363892E0,-6.713838501E0,9.601018397E0
9.960802086E-1,3.167862396E0,4.531975708E0,-5.477858734E0,7.783385657E0
1.006096208E0,2.090253296E0,4.067940674E0,-5.608237610E0,7.236686345E0
1.016113208E0,2.338287506E0,3.930227051E0,-6.542893982E0,7.982714751E0
1.026130208E0,3.729494476E0,4.276906128E0,-7.287295990E0,9.236110541E0
1.036146208E0,5.049599304E0,4.731660461E0,-7.691605225E0,1.034639332E1
1.046163208E0,5.841153259E0,5.031936035E0,-7.216642914E0,1.056027398E1
1.056179208E0,6.387068024E0,5.352718964E0,-6.207890625E0,1.039154196E1
1.066196208E0,6.241271210E0,5.441783752E0,-5.808521118E0,1.011461291E1
1.076212208E0,5.654790802E0,5.266198883E0,-5.170847168E0,9.297697033E0
1.086229333E0,5.135520630E0,5.019511871E0,-4.725523224E0,8.596490057E0
1.096245334E0,5.194947052E0,4.843777313E0,-5.214705963E0,8.811515864E0
1.106262333E0,5.546565857E0,4.893773346E0,-5.848488007E0,9.429645928E0
1.116279333E0,5.526806946E0,4.909340973E0,-5.729635162E0,9.352857472E0
1.126295333E0,5.326373749E0,4.952151947E0,-5.755980377E0,9.274986594E0
1.136312333E0,5.043312378E0,4.885839844E0,-5.704936523E0,9.047249939E0
1.146328333E0,5.061275024E0,4.858895874E0,-5.515280914E0,8.924331771E0
1.156345333E0,5.383704529E0,5.049299927E0,-5.748346252E0,9.355382881E0
1.166361333E0,5.488187256E0,5.150339813E0,-5.944737854E0,9.590938833E0
1.176378333E0,5.391039276E0,5.175936584E0,-6.099815369E0,9.646832202E0
1.186395333E0,5.197491760E0,5.032834167E0,-6.076463928E0,9.448108500E0
1.196411334E0,5.017416229E0,4.784051514E0,-6.090684357E0,9.228111965E0
1.206428333E0,4.914729767E0,4.595593414E0,-6.285279694E0,9.207539755E0
1.216444334E0,4.727918243E0,4.526437225E0,-6.311924286E0,9.092977129E0
1.226461333E0,4.806205444E0,4.719385986E0,-6.174809418E0,9.137860045E0
1.236477334E0,5.335804138E0,5.167254639E0,-6.353837128E0,9.774588101E0
1.246494333E0,5.459147644E0,5.508844299E0,-6.780449982E0,1.030165814E1
1.256510333E0,4.957391052E0,5.495522003E0,-6.540349274E0,9.876874848E0
1.266527333E0,4.175267487E0,5.271138611E0,-6.058800659E0,9.051343893E0
1.276544333E0,3.407514038E0,5.061574402E0,-6.528224487E0,8.935793322E0
1.286560333E0,2.895279236E0,4.874912567E0,-7.090155945E0,9.078420882E0
1.296577333E0,2.590063934E0,4.698728943E0,-7.277117157E0,9.041179070E0
1.306593333E0,2.630928955E0,4.628524933E0,-7.071145477E0,8.851334847E0
1.316610334E0,2.718197479E0,4.722529449E0,-7.274871826E0,9.089259707E0
1.326626333E0,2.841091919E0,4.974156189E0,-8.005652161E0,9.844008310E0
1.336643334E0,3.553759918E0,5.288951569E0,-8.393345947E0,1.053804889E1
1.346659333E0,4.762646027E0,5.554798737E0,-8.679101715E0,1.135188939E1
1.356676334E0,5.730533295E0,5.597759399E0,-8.686286774E0,1.181632346E1
1.366693333E0,5.966293030E0,5.414839783E0,-8.071664886E0,1.140477604E1
1.376709333E0,5.271887054E0,5.037474518E0,-6.774761810E0,9.953207534E0
1.386726333E0,3.993844757E0,4.675826569E0,-6.070925446E0,8.641197012E0
1.396742333E0,3.158432007E0,4.527035980E0,-6.446195068E0,8.486647063E0
1.406759333E0,2.928210754E0,4.663252716E0,-7.626490631E0,9.406577670E0
1.416775333E0,3.404819641E0,4.943170624E0,-8.667575684E0,1.054298823E1
1.426792333E0,4.587659912E0,5.263504486E0,-9.366172943E0,1.168230707E1
1.436808333E0,6.005661163E0,5.484145660E0,-9.445507965E0,1.246440694E1
1.446825333E0,6.580016785E0,5.632786560E0,-9.350305939E0,1.274571012E1
1.456842334E0,5.686824188E0,5.572012939E0,-8.505911865E0,1.165065810E1
1.466858333E0,3.755839691E0,5.286257172E0,-7.098089447E0,9.614245705E0
1.476875334E0,2.216440887E0,4.980293427E0,-6.577771454E0,8.543009430E0
1.486891333E0,1.842219086E0,4.708608398E0,-7.200027466E0,8.798020216E0
1.496908333E0,2.358196106E0,4.486919403E0,-8.300089874E0,9.725483357E0
1.506924334E0,2.897225189E0,4.367767181E0,-9.285490723E0,1.066262828E1
1.516941333E0,2.928959198E0,4.347409515E0,-9.697434082E0,1.102356563E1
1.526958333E0,2.546803894E0,4.398153992E0,-9.197623444E0,1.050838930E1
1.536974333E0,2.231260071E0,4.535568237E0,-8.591683502E0,9.968296050E0
1.546991333E0,2.340383148E0,4.722529449E0,-8.150401154E0,9.706117486E0
1.557007333E0,2.738405457E0,4.738546143E0,-7.565118256E0,9.337221118E0
1.567024333E0,2.867137756E0,4.628375244E0,-7.198979645E0,9.025942845E0
1.577040333E0,2.744093628E0,4.610562286E0,-7.422015839E0,9.158256032E0
1.587057333E0,2.679577789E0,4.666246490E0,-7.892038422E0,9.551872271E0
1.597073333E0,2.841990051E0,4.703369293E0,-8.351433105E0,9.997250876E0
1.607090333E0,2.957549744E0,4.797074432E0,-8.833131409E0,1.047774948E1
1.617107333E0,2.996618500E0,4.931794281E0,-9.007668457E0,1.069768238E1
1.627123334E0,3.029550018E0,5.070855103E0,-8.818012848E0,1.061362781E1
1.637140333E0,3.335364075E0,5.050796814E0,-8.277037811E0,1.025400199E1
1.647156334E0,3.583847351E0,4.950655060E0,-7.857011261E0,9.954173663E0
1.657173333E0,3.684438171E0,4.987478485E0,-7.720345459E0,9.902209869E0
1.667189334E0,3.833677826E0,5.123545532E0,-7.448211365E0,9.819554828E0
1.677206333E0,4.001778259E0,5.359904022E0,-7.414082336E0,9.985560438E0
1.687222333E0,4.232298889E0,5.649102631E0,-7.865393829E0,1.056830802E1
1.697239333E0,4.641547852E0,5.899382172E0,-8.520880737E0,1.135570716E1
1.707256333E0,5.143603821E0,5.873186646E0,-8.057145081E0,1.121911621E1
1.717272333E0,5.281317444E0,5.636379089E0,-6.599176941E0,1.015924306E1
1.727289333E0,4.688400421E0,5.357658691E0,-5.835614777E0,9.205433449E0
1.737305333E0,3.710783386E0,5.152435455E0,-6.339317322E0,8.972427128E0
1.747322334E0,3.381767578E0,5.126389618E0,-7.270680542E0,9.517300984E0
1.757338333E0,3.768413544E0,5.276228027E0,-8.041876831E0,1.033011645E1
1.767355334E0,4.092339935E0,5.409750366E0,-7.850424957E0,1.037505745E1
1.777371333E0,4.295467529E0,5.505551147E0,-7.912096710E0,1.055288629E1
1.787388334E0,4.846022644E0,5.602998505E0,-8.353229370E0,1.116485417E1
1.797405333E0,5.124892731E0,5.327122192E0,-7.156018982E0,1.028840921E1
1.807421333E0,4.879403229E0,4.999453583E0,-5.896538086E0,9.141787210E0
1.817438333E0,4.474794617E0,4.821174316E0,-6.107000427E0,8.975687320E0
1.827454333E0,4.520898743E0,4.689298553E0,-6.426735535E0,9.150463158E0
1.837471333E0,4.675676880E0,4.482578430E0,-6.135740662E0,8.922038844E0
1.847487333E0,4.697082367E0,4.277355194E0,-6.072572021E0,8.788315036E0
1.857504333E0,4.630321198E0,4.219874725E0,-6.124663696E0,8.761205538E0
1.867520333E0,4.671036530E0,4.247567139E0,-5.798342285E0,8.572116548E0
1.877537333E0,4.703369293E0,4.351750488E0,-5.739364929E0,8.602309272E0
1.887554334E0,4.681514740E0,4.501289520E0,-5.830974426E0,8.728026717E0
1.897570333E0,4.817432098E0,4.715494080E0,-5.897436218E0,8.956745524E0
1.907587334E0,5.072052612E0,4.984185333E0,-6.359525299E0,9.539988636E0
1.917603333E0,5.223836975E0,5.104385376E0,-6.672674103E0,9.892815701E0
1.927620333E0,5.052593079E0,4.974006500E0,-6.508166199E0,9.624222813E0
1.937636334E0,4.742587738E0,4.799170074E0,-6.392307129E0,9.294394132E0
1.947653333E0,4.643942871E0,4.774321747E0,-6.450536041E0,9.271988393E0
1.957669334E0,4.557572479E0,4.787045288E0,-6.477779388E0,9.254668838E0
1.967686333E0,4.427642670E0,4.830305328E0,-6.268364868E0,9.067980332E0
1.977703333E0,4.346511383E0,4.945415955E0,-6.331982574E0,9.134730619E0
1.987719333E0,4.468358002E0,5.096751251E0,-6.680308228E0,9.516806952E0
1.997736333E0,4.575535126E0,5.235063629E0,-6.678661652E0,9.640847180E0
2.007752333E0,4.452940063E0,5.358856201E0,-6.759343872E0,9.707458193E0
2.017769333E0,4.276007996E0,5.476810913E0,-6.798113251E0,9.720804798E0
2.027785333E0,4.095034332E0,5.608836365E0,-6.588399353E0,9.572635874E0
2.037802333E0,3.795656891E0,5.682483215E0,-6.748416595E0,9.604100857E0
2.047818333E0,3.598816223E0,5.613327026E0,-6.894363098E0,9.591306535E0
2.057835334E0,3.583248596E0,5.384003906E0,-6.462960205E0,9.143140772E0
2.067852333E0,3.775448914E0,5.167703705E0,-6.524781647E0,9.139581589E0
2.077868458E0,3.972738647E0,5.026098175E0,-6.955286407E0,9.456232032E0
2.087885458E0,4.079915771E0,4.953648834E0,-7.410789185E0,9.803272199E0
2.097901458E0,4.169279938E0,5.027145996E0,-7.746690674E0,1.013243843E1
2.107918459E0,4.062851257E0,5.236261139E0,-7.894732819E0,1.030786095E1
2.117934458E0,3.780238953E0,5.418432312E0,-7.757617950E0,1.018971302E1
2.127951459E0,3.478466492E0,5.513933716E0,-7.521109772E0,9.953405767E0
2.137967458E0,3.370690613E0,5.518424377E0,-7.398365021E0,9.826004671E0
2.147984458E0,3.604205017E0,5.476661224E0,-7.791597290E0,1.018298091E1
2.158001458E0,4.086951141E0,5.400319977E0,-8.291108551E0,1.070556428E1
2.168017458E0,4.377047882E0,5.227579193E0,-8.483009491E0,1.088336264E1
2.178034458E0,4.259542236E0,4.883893890E0,-7.819589081E0,1.015588957E1
2.188050458E0,3.871100006E0,4.691394196E0,-7.332651672E0,9.526928954E0
2.198067458E0,3.444936218E0,4.743485870E0,-7.594606934E0,9.594076205E0
2.208083458E0,3.149600372E0,4.900209961E0,-7.576793976E0,9.557188243E0
2.218100458E0,2.931204529E0,5.135820007E0,-7.950866089E0,9.908828321E0
2.228116458E0,2.822231140E0,5.370382233E0,-8.430319061E0,1.038635034E1
2.238133458E0,2.748883667E0,5.398374023E0,-8.430618439E0,1.038143202E1
2.248150459E0,2.590363312E0,5.328170013E0,-8.758137360E0,1.057375751E1
2.258166458E0,2.575394440E0,5.195545807E0,-9.027577057E0,1.072956198E1
2.268183458E0,2.916984100E0,4.997507629E0,-8.786877594E0,1.052107868E1
2.278199458E0,3.469934235E0,4.896018677E0,-8.567433929E0,1.046003664E1
2.288216458E0,3.895948334E0,4.928650818E0,-8.589737549E0,1.064206763E1
2.298232459E0,3.974834290E0,4.965025177E0,-8.063881073E0,1.027019769E1
2.308249458E0,3.674109650E0,5.039420471E0,-7.475305023E0,9.735246560E0
2.318266458E0,3.247646484E0,5.079986115E0,-7.140451355E0,9.345561094E0
2.328282458E0,3.101400604E0,5.082381134E0,-7.231162720E0,9.366909735E0
2.338299458E0,3.475921783E0,5.040767670E0,-7.786507874E0,9.905608301E0
2.348315458E0,4.032763824E0,4.926106110E0,-8.371940460E0,1.051756115E1
2.358332458E0,4.212240601E0,4.821473694E0,-8.649014282E0,1.076080980E1
2.368348458E0,3.885320435E0,4.762047272E0,-8.207432556E0,1.025352419E1
2.378365458E0,3.298540649E0,4.769082642E0,-7.478298798E0,9.463058309E0
2.388381458E0,2.775827637E0,4.800966339E0,-6.857090607E0,8.818967539E0
2.398398458E0,2.361638947E0,4.922064514E0,-6.956034851E0,8.842538009E0
2.408415458E0,2.219883728E0,5.035827942E0,-7.002138977E0,8.906031500E0
2.418431459E0,2.496508484E0,5.173242188E0,-7.948321381E0,9.806671306E0
2.428448458E0,3.417543182E0,5.325774994E0,-9.391919403E0,1.132482365E1
2.438464459E0,4.481829987E0,5.300627289E0,-9.686357117E0,1.191675140E1
2.448481458E0,5.145699463E0,5.306614838E0,-9.491013336E0,1.202986775E1
2.458497458E0,5.065765686E0,5.368436279E0,-8.607101440E0,1.133861920E1
2.468514458E0,3.964505768E0,5.284311218E0,-6.314319305E0,9.138483426E0
2.478530458E0,2.210453339E0,5.006938019E0,-4.413122864E0,7.030731519E0
2.488547458E0,8.554710388E-1,4.624483337E0,-4.098626862E0,6.238302573E0
2.498564458E0,7.920030212E-1,4.536316681E0,-5.959107971E0,7.531029520E0
2.508580458E0,2.091750183E0,4.780758362E0,-8.357121277E0,9.852540047E0
2.518597458E0,3.766467590E0,4.974455566E0,-1.002749771E1,1.181025811E1
2.528613458E0,5.030139771E0,5.116061096E0,-1.051683014E1,1.273106843E1
2.538630459E0,5.539231110E0,5.188959503E0,-9.414821777E0,1.209327297E1
2.548646458E0,5.039121094E0,5.158722382E0,-7.297175446E0,1.025933368E1
2.558663459E0,4.123774567E0,5.176685028E0,-6.018983459E0,8.946046414E0
2.568679458E0,3.720662842E0,5.386548615E0,-6.185587006E0,9.006648909E0
2.578696458E0,3.784879303E0,5.571414185E0,-6.536607056E0,9.385797737E0
2.588712458E0,3.826941833E0,5.553152161E0,-6.805447998E0,9.581080585E0
2.598729458E0,3.604205017E0,5.352269897E0,-7.055577850E0,9.561289958E0
2.608746458E0,3.376528473E0,5.044509888E0,-7.231911163E0,9.441851704E0
2.618762458E0,3.365900574E0,4.878505096E0,-7.736661530E0,9.746026384E0
2.628779458E0,3.516786804E0,4.827610931E0,-8.035739594E0,1.001232878E1
2.638795458E0,3.628753967E0,4.778662720E0,-7.898325348E0,9.919022938E0
2.648812458E0,3.562292175E0,4.734205170E0,-7.738757172E0,9.746331961E0
2.658828458E0,3.395089874E0,4.722379761E0,-7.562872925E0,9.540678840E0
2.668845458E0,3.358116760E0,4.711452484E0,-7.343578949E0,9.348950982E0
2.678861458E0,3.420836334E0,4.706662445E0,-7.260651398E0,9.304399568E0
2.688878458E0,3.540437622E0,4.711901550E0,-7.197033691E0,9.302365760E0
2.698895458E0,3.719914398E0,4.795577545E0,-7.271578674E0,9.471598785E0
2.708911458E0,3.877087555E0,4.855153656E0,-7.281458130E0,9.572040401E0
2.718928458E0,4.001628571E0,4.984035645E0,-7.202721863E0,9.629789445E0
2.728944459E0,4.083657990E0,5.188211060E0,-7.495063934E0,9.988482365E0
2.738961458E0,4.113296356E0,5.317691803E0,-7.422315216E0,1.001438047E1
2.748977459E0,3.809278564E0,5.266498260E0,-6.970704346E0,9.530861776E0
2.758994458E0,3.295696564E0,5.134173431E0,-6.825955353E0,9.155054295E0
2.769011458E0,2.910846863E0,5.029241638E0,-7.002588043E0,9.099590113E0
2.779027458E0,2.735711060E0,4.940326538E0,-7.139104156E0,9.102623219E0
2.789044458E0,2.856659546E0,4.906796265E0,-7.355853424E0,9.292240469E0
2.799060458E0,3.581302643E0,5.023852844E0,-7.821535034E0,9.961989576E0
2.809077458E0,4.438569946E0,5.239853668E0,-8.420439606E0,1.086557743E1
2.819093458E0,4.841082916E0,5.460644531E0,-8.702153778E0,1.135703319E1
2.829110458E0,4.404291229E0,5.516628113E0,-8.169112244E0,1.079654398E1
2.839126458E0,3.358266449E0,5.443879395E0,-7.195237427E0,9.627316242E0
2.849143459E0,2.340981903E0,5.326074371E0,-6.671027527E0,8.851546348E0
2.859160458E0,1.865121460E0,5.232369232E0,-6.862180023E0,8.828696422E0
2.869176459E0,2.003433838E0,5.136119385E0,-7.474257202E0,9.287517979E0
2.879193458E0,2.575693817E0,4.947361908E0,-8.121511230E0,9.852387181E0
2.889209458E0,3.411705322E0,4.708309021E0,-8.477471008E0,1.027985514E1
2.899226458E0,4.077969818E0,4.527485046E0,-8.772806854E0,1.068129668E1
2.909242458E0,4.224664764E0,4.502786407E0,-8.629255371E0,1.061069866E1
2.919259458E0,3.826043701E0,4.652325439E0,-8.183482361E0,1.016130533E1
2.929275458E0,3.290008392E0,4.951253815E0,-8.021968231E0,9.984540243E0
2.939292458E0,2.993175659E0,5.212909698E0,-7.738757172E0,9.799076008E0
2.949308458E0,2.942431183E0,5.325475616E0,-7.488627319E0,9.648737272E0
2.959325458E0,2.982398071E0,5.250631256E0,-7.754773865E0,9.828547428E0
2.969342459E0,3.087180176E0,5.062921600E0,-8.183931427E0,1.010646279E1
2.979358458E0,3.173700256E0,4.885839844E0,-8.414452057E0,1.023458879E1
2.989375459E0,3.030298462E0,4.817731476E0,-8.647816772E0,1.035267986E1
2.999391458E0,2.753524017E0,4.803511047E0,-8.570876770E0,1.020370234E1
3.009408458E0,2.534978485E0,4.846771088E0,-8.351582794E0,9.983298106E0
3.019424458E0,2.342179413E0,4.909640350E0,-8.066276093E0,9.729089514E0
3.029441458E0,2.334994354E0,4.944368134E0,-7.719147949E0,9.459609925E0
3.039457459E0,2.545456696E0,4.943170624E0,-7.511529694E0,9.345446161E0
3.049474458E0,2.835703125E0,4.871469727E0,-7.542664948E0,9.416168224E0
3.059491458E0,2.884501648E0,4.814887390E0,-7.508236542E0,9.374278975E0
3.069507458E0,2.744542694E0,4.783153381E0,-7.735763397E0,9.500163483E0
3.079524625E0,2.784060516E0,4.775369568E0,-8.011340332E0,9.733279066E0
3.089540625E0,3.194656677E0,4.888234863E0,-8.540340271E0,1.034592110E1
3.099557625E0,3.687431946E0,5.019062805E0,-8.992699585E0,1.093877469E1
3.109573625E0,3.956871643E0,5.164560242E0,-9.159153442E0,1.123475000E1
3.119590625E0,3.962110748E0,5.286257172E0,-9.141041107E0,1.127836287E1
3.129606625E0,3.667972412E0,5.251978455E0,-8.254883881E0,1.044894287E1
3.139623625E0,3.035387878E0,5.061873779E0,-6.689888306E0,8.921364877E0
3.149640625E0,2.303110657E0,4.817432098E0,-6.032754822E0,8.056432303E0
3.159656625E0,1.922901306E0,4.596192169E0,-6.415508881E0,8.122886561E0
3.169673625E0,2.264640656E0,4.523742828E0,-7.390281830E0,8.955953997E0
3.179689625E0,3.424877930E0,4.693190460E0,-8.933871918E0,1.065691761E1
3.189706625E0,4.561614075E0,4.976700897E0,-9.923913116E0,1.200249667E1
3.199722625E0,5.058730316E0,5.297483826E0,-9.672735443E0,1.213325588E1
3.209739625E0,4.780159607E0,5.638175354E0,-8.567583618E0,1.131558378E1
3.219755625E0,3.614832916E0,5.644611969E0,-6.879244537E0,9.604825178E0
3.229772625E0,2.019450531E0,5.234015808E0,-4.724026337E0,7.334134356E0
3.239789625E0,6.665638733E-1,4.859644318E0,-4.760849762E0,6.835652182E0
3.249805625E0,4.635859680E-1,4.703518982E0,-6.656807098E0,8.164011484E0
3.259822625E0,1.438957672E0,4.794679413E0,-8.510851593E0,9.873912330E0
3.269838625E0,2.970422974E0,4.955145721E0,-9.496551819E0,1.111581658E1
3.279855625E0,4.212689667E0,4.976700897E0,-9.339228973E0,1.139014942E1
3.289871625E0,4.676275635E0,5.056484985E0,-9.099876709E0,1.141242088E1
3.299888625E0,4.398752747E0,5.075794830E0,-7.789202271E0,1.028515391E1
3.309904625E0,3.685336304E0,5.049748993E0,-6.364764404E0,8.921428949E0
3.319921625E0,2.983595581E0,5.078638916E0,-6.165379028E0,8.526799774E0
3.329938625E0,2.828218689E0,5.100194092E0,-6.575226746E0,8.788879763E0
3.339954625E0,3.066223755E0,5.162464600E0,-7.768994293E0,9.818861501E0
3.349971625E0,3.299289093E0,5.091063080E0,-8.403225403E0,1.036428623E1
3.359987625E0,3.541186066E0,4.991071014E0,-8.643176422E0,1.059033934E1
3.370004625E0,3.749552765E0,4.932393036E0,-8.593928833E0,1.059449195E1
3.380020625E0,3.658691711E0,4.909340973E0,-8.266110535E0,1.028670196E1
3.390037625E0,3.401975555E0,5.020410004E0,-7.885601807E0,9.947897775E0
3.400053625E0,3.248394928E0,5.199138336E0,-7.419022064E0,9.624188144E0
3.410070625E0,3.092568970E0,5.239703979E0,-7.136260071E0,9.377882939E0
3.420087625E0,2.931354218E0,5.143454132E0,-7.312743073E0,9.408728352E0
3.430103625E0,2.968327332E0,5.036726074E0,-7.582931213E0,9.574989425E0
3.440120625E0,3.205583954E0,4.940476227E0,-7.921377411E0,9.870779803E0
3.450136625E0,3.429967346E0,4.849166107E0,-8.127947845E0,1.006690738E1
3.460153625E0,3.652704163E0,4.785398712E0,-8.078849945E0,1.007522233E1
3.470169625E0,3.790567474E0,4.811145172E0,-7.861202545E0,9.965642232E0
3.480186625E0,3.747906189E0,4.951852570E0,-7.616910553E0,9.827765313E0
3.490202625E0,3.579805756E0,5.115911407E0,-7.262447662E0,9.577614777E0
3.500219625E0,3.302881622E0,5.262606354E0,-7.165449371E0,9.484077042E0
3.510236625E0,3.090772705E0,5.423222351E0,-7.484885101E0,9.746164454E0
3.520252625E0,2.912194061E0,5.481151886E0,-7.882158966E0,1.003256349E1
3.530269625E0,2.616259460E0,5.300477600E0,-8.011789398E0,9.956336963E0
3.540285625E0,2.282154236E0,4.994513855E0,-7.773634644E0,9.517499261E0
3.550302625E0,2.183659058E0,4.714296570E0,-7.640561371E0,9.239650269E0
3.560318625E0,2.530338135E0,4.634362793E0,-8.016130371E0,9.598868459E0
3.570335625E0,3.345542908E0,4.798870697E0,-8.726103973E0,1.050555605E1
3.580351625E0,4.142186279E0,4.990621948E0,-8.846004639E0,1.096885649E1
3.590368625E0,4.171076202E0,5.097799072E0,-8.529412994E0,1.077665616E1
3.600384625E0,3.365152130E0,5.049898682E0,-7.657925262E0,9.770851799E0
3.610401625E0,2.492167511E0,5.008285217E0,-6.916067963E0,8.895269292E0
3.620418625E0,2.240840149E0,5.047204285E0,-6.745871887E0,8.717936865E0
3.630434625E0,2.616708527E0,5.086123352E0,-6.837182007E0,8.914194975E0
3.640451625E0,3.149001617E0,5.031936035E0,-7.344177704E0,9.443174127E0
3.650467625E0,3.533102875E0,4.853058014E0,-7.774832153E0,9.822576191E0
3.660484625E0,3.626658325E0,4.707261200E0,-8.060737610E0,1.001431223E1
3.670500625E0,3.494932251E0,4.675676880E0,-8.406817932E0,1.023479816E1
3.680517625E0,3.269501038E0,4.757706299E0,-8.583750000E0,1.034437868E1
3.690533625E0,3.036435699E0,4.904700623E0,-8.547375641E0,1.031182139E1
3.700550625E0,2.787653046E0,5.047503662E0,-8.274792480E0,1.008565780E1
3.710567625E0,2.364932098E0,5.086273041E0,-7.671996002E0,9.503820281E0
3.720583625E0,1.932930450E0,5.038971405E0,-7.250173187E0,9.038388363E0
3.730600625E0,2.021995239E0,5.038073273E0,-7.599995728E0,9.339731372E0
3.740616625E0,2.599644012E0,4.999603271E0,-8.140970764E0,9.900989185E0
3.750633625E0,3.119512939E0,4.903054047E0,-8.493637390E0,1.029141273E1
3.760649625E0,3.241658936E0,4.874762878E0,-8.571325836E0,1.037975396E1
3.770666625E0,3.068169708E0,4.859644318E0,-8.329428864E0,1.011974276E1
3.780682625E0,2.896476746E0,4.932093658E0,-8.066874847E0,9.888862179E0
3.790699625E0,2.992427216E0,5.067262573E0,-7.891739044E0,9.844354513E0
3.800715625E0,3.231929169E0,5.212760010E0,-7.928712158E0,1.002410642E1
3.810732625E0,3.309467926E0,5.280868378E0,-7.825576630E0,1.000398912E1
3.820749625E0,3.094365234E0,5.172793121E0,-7.451803894E0,9.584480484E0
3.830765625E0,2.725532227E0,5.049449615E0,-7.433392181E0,9.390462537E0
3.840782625E0,2.733016663E0,5.042563934E0,-7.947423248E0,9.800937067E0
3.850798625E0,3.076252899E0,5.046306152E0,-8.351433105E0,1.023107876E1
3.860815625E0,3.536545715E0,5.183570709E0,-9.113498383E0,1.106491815E1
3.870831625E0,3.906725922E0,5.354814606E0,-9.560019836E0,1.163316492E1
3.880848625E0,4.319567413E0,5.487289124E0,-9.323361969E0,1.164878032E1
3.890864625E0,4.521796875E0,5.421725464E0,-8.293952637E0,1.089180446E1
3.900881625E0,4.036356354E0,5.237758026E0,-7.201674042E0,9.777033843E0
3.910898625E0,3.047662354E0,5.078638916E0,-6.294111328E0,8.642722746E0
3.920914625E0,2.467468872E0,5.163811798E0,-6.373596039E0,8.565983971E0
3.930931625E0,2.353705444E0,5.282814331E0,-7.036567383E0,9.108311430E0
3.940947625E0,2.247127075E0,5.188959503E0,-7.099885712E0,9.076522348E0
3.950964625E0,2.055226135E0,5.015320587E0,-7.016808472E0,8.866397024E0
3.960980625E0,1.928589478E0,4.824168091E0,-7.235952759E0,8.907921613E0
3.970997625E0,2.310894470E0,4.771627350E0,-7.671097870E0,9.324934496E0
3.981013625E0,3.199596405E0,4.962630157E0,-8.358917542E0,1.023409096E1
3.991030625E0,4.039948883E0,5.143603821E0,-8.307574310E0,1.057325107E1
4.001047625E0,4.372706909E0,5.265600128E0,-7.949219513E0,1.048986183E1
4.011063625E0,4.372856598E0,5.396577759E0,-7.881260834E0,1.050519865E1
4.021080625E0,4.349654846E0,5.437742157E0,-7.649393005E0,1.034416504E1
4.031096625E0,4.406386871E0,5.446873169E0,-7.097790070E0,9.973128719E0
4.041113625E0,4.324656830E0,5.370232544E0,-6.492598572E0,9.470791439E0
4.051129625E0,3.944447479E0,5.287155304E0,-6.557264099E0,9.301096150E0
4.061146625E0,3.613934784E0,5.151687012E0,-6.921456757E0,9.354515879E0
4.071162625E0,3.604953461E0,5.023553467E0,-7.132368164E0,9.439409649E0
4.081179708E0,3.644022217E0,4.898862762E0,-7.236102448E0,9.467783949E0
4.091196708E0,3.380869446E0,4.759502563E0,-7.456444244E0,9.470042430E0
4.101212708E0,3.000061340E0,4.646936646E0,-7.662415924E0,9.450238411E0
4.111229708E0,2.694097595E0,4.619094543E0,-7.565717010E0,9.264678631E0
4.121245708E0,2.507136383E0,4.608616333E0,-7.419321442E0,9.086881093E0
4.131262708E0,2.484234009E0,4.663851471E0,-7.340136108E0,9.044364391E0
4.141278708E0,2.740201721E0,4.761448517E0,-7.226222992E0,9.077356233E0
4.151295708E0,3.137774963E0,4.914879456E0,-7.272027740E0,9.321161904E0
4.161311708E0,3.482508087E0,5.157225494E0,-7.560028839E0,9.791775806E0
4.171328709E0,3.850892029E0,5.388494568E0,-7.553292847E0,1.004576906E1
4.181345708E0,4.174968109E0,5.531896362E0,-7.431895294E0,1.016195374E1
4.191361709E0,4.137845306E0,5.623505859E0,-7.393574982E0,1.016909696E1
4.201378708E0,3.846551056E0,5.591322784E0,-7.373516693E0,1.002135689E1
4.211394708E0,3.530707855E0,5.504054260E0,-7.249574432E0,9.763034401E0
4.221411708E0,3.246149597E0,5.396727448E0,-7.273973694E0,9.621478454E0
4.231427708E0,2.986140289E0,5.264402618E0,-7.552993469E0,9.678774669E0
4.241444708E0,2.718496857E0,5.074896698E0,-7.142546997E0,9.173918425E0
4.251460708E0,2.457290039E0,4.939877472E0,-6.926097107E0,8.855025969E0
4.261477708E0,2.610271912E0,4.981940002E0,-7.399113464E0,9.294090902E0
4.271493708E0,3.265010376E0,5.188510437E0,-8.296048279E0,1.031529691E1
4.281510708E0,4.072281647E0,5.327720947E0,-8.922196198E0,1.116125769E1
4.291527709E0,4.478387146E0,5.338049469E0,-8.969946899E0,1.135828644E1
4.301543708E0,4.246070251E0,5.279970245E0,-8.462352448E0,1.084059995E1
4.311560709E0,3.628753967E0,5.056634674E0,-7.486082611E0,9.735442591E0
4.321576708E0,2.984643402E0,4.756059723E0,-6.722969513E0,8.759367523E0
4.331593708E0,2.626138916E0,4.654870148E0,-6.483766937E0,8.402598134E0
4.341609708E0,2.689008179E0,4.818629608E0,-6.877897339E0,8.817903838E0
4.351626708E0,2.866389313E0,4.994064789E0,-7.254214783E0,9.261776445E0
4.361642709E0,2.852019196E0,5.134921875E0,-7.799680481E0,9.764038701E0
4.371659708E0,2.828667755E0,5.136269073E0,-8.162975006E0,1.005071053E1
4.381675709E0,2.965034180E0,5.050946503E0,-8.460107117E0,1.028965017E1
4.391692708E0,3.131188660E0,5.005141754E0,-8.905880127E0,1.068505907E1
4.401709708E0,3.165617065E0,5.015470276E0,-9.092242584E0,1.085564133E1
4.411725708E0,3.132086792E0,5.076543274E0,-8.956175537E0,1.076077783E1
4.421742708E0,3.241060181E0,5.194497986E0,-8.710686035E0,1.064722178E1
4.431758708E0,3.425776062E0,5.302573242E0,-8.497529297E0,1.058589764E1
4.441775708E0,3.523822174E0,5.326673126E0,-8.139324188E0,1.034598316E1
4.451791708E0,3.467838593E0,5.282365265E0,-7.766599274E0,1.001245982E1
4.461808708E0,3.285817108E0,5.180726624E0,-7.771089935E0,9.900826289E0
4.471824708E0,3.088826752E0,5.083728333E0,-7.986192627E0,9.958133215E0
4.481841709E0,2.859503632E0,4.977748718E0,-8.121960297E0,9.945902794E0
4.491858708E0,2.624192963E0,4.860692139E0,-8.276738434E0,9.950734439E0
4.501874709E0,2.475851440E0,4.789140930E0,-8.497978363E0,1.006386345E1
4.511891708E0,2.455194397E0,4.746329956E0,-8.500223694E0,1.004038995E1
4.521907708E0,2.620600433E0,4.780159607E0,-8.457412720E0,1.006207247E1
4.531924708E0,2.855012970E0,4.901407471E0,-8.687933350E0,1.037569661E1
4.541940708E0,3.057092743E0,4.888683929E0,-8.639284515E0,1.038663967E1
4.551957708E0,3.158432007E0,4.826712799E0,-8.104446716E0,9.947608042E0
4.561973708E0,2.964884491E0,4.799319763E0,-7.561974792E0,9.434377192E0
4.571990708E0,2.666554871E0,4.875361633E0,-7.487729187E0,9.324470726E0
4.582007708E0,2.717299347E0,4.995262299E0,-7.228767700E0,9.197360689E0
4.592023708E0,3.002755737E0,5.077591095E0,-7.376211090E0,9.444943800E0
4.602040709E0,3.331921234E0,5.081632690E0,-7.990084534E0,1.003823395E1
4.612056708E0,3.620371399E0,5.103487244E0,-7.959098969E0,1.012422479E1
4.622073709E0,3.569477234E0,5.183421021E0,-7.750432892E0,9.983898598E0
4.632089708E0,3.044219513E0,5.098846893E0,-6.963519287E0,9.151836589E0
4.642106708E0,2.533032532E0,4.984484711E0,-6.200555878E0,8.349145755E0
4.652122709E0,2.463427277E0,4.985981598E0,-6.447841644E0,8.514878056E0
4.662139708E0,2.903212738E0,5.040767670E0,-6.956184540E0,9.067882126E0
4.672155709E0,3.382516022E0,5.051694946E0,-7.273524628E0,9.479725575E0
4.682172708E0,3.573069763E0,5.105582886E0,-7.985893250E0,1.012957527E1
4.692189708E0,3.567531281E0,5.197491760E0,-8.548423462E0,1.062152266E1
4.702205708E0,3.651656342E0,5.272186432E0,-8.450976105E0,1.060893684E1
4.712222708E0,3.901486816E0,5.285508728E0,-7.931256866E0,1.029869105E1
4.722238708E0,4.167483673E0,5.214406586E0,-7.345375214E0,9.925346001E0
4.732255708E0,4.245770874E0,5.095104675E0,-7.010222168E0,9.650382211E0
4.742271708E0,4.074227600E0,4.990621948E0,-7.118896179E0,9.601266624E0
4.752288708E0,3.754791870E0,4.989424438E0,-7.464228058E0,9.731778805E0
4.762304708E0,3.529061279E0,5.073848877E0,-7.710466003E0,9.881776254E0
4.772321709E0,3.433260498E0,5.153483276E0,-7.819140015E0,9.974197617E0
4.782338708E0,3.420836334E0,5.103187866E0,-7.691455536E0,9.843939043E0
4.792354709E0,3.387306061E0,4.982389069E0,-7.564818878E0,9.670808024E0
4.802371708E0,3.371738434E0,4.939877472E0,-7.680079193E0,9.734198781E0
4.812387709E0,3.420986023E0,4.951253815E0,-7.773784332E0,9.831062127E0
4.822404708E0,3.513493652E0,5.019811249E0,-7.855664063E0,9.962660311E0
4.832420708E0,3.569028168E0,5.063220978E0,-7.772736511E0,9.939295830E0
4.842437708E0,3.540886688E0,5.048102417E0,-7.525600433E0,9.729125266E0
4.852453708E0,3.483256531E0,4.973856812E0,-7.393874359E0,9.567742977E0
4.862470708E0,3.359463959E0,4.935686188E0,-7.426207123E0,9.528669816E0
4.872486708E0,3.316802673E0,4.971910858E0,-7.541617126E0,9.622736951E0
4.882503708E0,3.419040070E0,5.032534790E0,-7.438182220E0,9.609515917E0
4.892520708E0,3.538791046E0,5.168152771E0,-7.437583466E0,9.723707777E0
4.902536708E0,3.553011475E0,5.287304993E0,-7.609875183E0,9.924196941E0
4.912553709E0,3.514840851E0,5.316943359E0,-7.673043823E0,9.974948341E0
4.922569708E0,3.492836609E0,5.267097015E0,-7.424261169E0,9.749967818E0
4.932586709E0,3.466940460E0,5.161267090E0,-7.494914246E0,9.738177123E0
4.942602708E0,3.587290192E0,5.044958954E0,-7.918233948E0,1.005080547E1
4.952619708E0,3.702550507E0,4.949307861E0,-8.174201660E0,1.024802914E1
4.962635709E0,3.502416687E0,4.922812958E0,-7.689509583E0,9.779037155E0
4.972652708E0,2.831511841E0,4.937931519E0,-6.771318970E0,8.845981437E0
4.982669708E0,2.037862244E0,4.960235138E0,-6.458469543E0,8.394560381E0
4.992685708E0,1.870959320E0,4.952151947E0,-6.488107910E0,8.373759128E0
5.002702708E0,2.478845215E0,4.974455566E0,-7.037764893E0,8.967720807E0
5.012718708E0,3.611539764E0,5.156626740E0,-8.380023651E0,1.048135560E1
5.022735708E0,4.889282684E0,5.278922424E0,-8.873697052E0,1.142429895E1
5.032751708E0,5.375771027E0,5.344635773E0,-8.641080780E0,1.149488246E1
5.042768708E0,4.536017303E0,5.304968262E0,-7.882907410E0,1.052893017E1
5.052784708E0,3.100801849E0,5.187911682E0,-7.105424194E0,9.328260969E0
5.062801708E0,2.210603027E0,5.081782379E0,-6.675817566E0,8.676279045E0
5.072817708E0,2.242037659E0,4.994214478E0,-6.755901031E0,8.695464902E0
5.082834625E0,2.684218140E0,4.865182800E0,-7.077133026E0,8.997824324E0
5.092851625E0,2.995420990E0,4.738546143E0,-7.576195221E0,9.424706917E0
5.102867625E0,3.072211304E0,4.746928711E0,-8.317304077E0,1.005730389E1
5.112884625E0,3.081042938E0,4.772076416E0,-8.916957092E0,1.057249558E1
5.122900625E0,3.116668854E0,4.822970581E0,-9.075477448E0,1.073959780E1
5.132917625E0,3.242706757E0,4.902604980E0,-8.974437561E0,1.072805724E1
5.142933625E0,3.412154388E0,5.060975647E0,-8.862470398E0,1.076102475E1
5.152950625E0,3.413800964E0,5.201533356E0,-8.382867737E0,1.043946635E1
5.162966625E0,2.990630951E0,5.186863861E0,-7.500752106E0,9.597328396E0
5.172983625E0,2.506387939E0,5.116210785E0,-6.927893372E0,8.969576348E0
5.183000625E0,2.600093079E0,5.103636932E0,-7.226222992E0,9.220948578E0
5.193016625E0,3.140169983E0,5.037624207E0,-7.912845154E0,9.891988859E0
5.203033625E0,3.380570068E0,4.887935486E0,-8.425828400E0,1.031090450E1
5.213049625E0,3.191213837E0,4.770729218E0,-8.578810272E0,1.032180647E1
5.223066625E0,2.938988342E0,4.742138672E0,-8.477471008E0,1.014854898E1
5.233082625E0,2.933150482E0,4.852908325E0,-8.570128326E0,1.027624399E1
5.243099625E0,3.159479828E0,4.977898407E0,-8.389454041E0,1.025401016E1
5.253115625E0,3.395538940E0,5.069956970E0,-8.108039246E0,1.014763267E1
5.263132625E0,3.362008667E0,5.139562225E0,-7.945477295E0,1.004235090E1
5.273148625E0,3.208877106E0,5.053640900E0,-7.542215881E0,9.629184754E0
5.283165625E0,3.090922394E0,4.995711365E0,-7.433841248E0,9.474857729E0
5.293182625E0,3.306474152E0,5.110821991E0,-7.886050873E0,9.962081665E0
5.303198625E0,3.813769226E0,5.214107208E0,-8.167465668E0,1.041341659E1
5.313215625E0,4.186045074E0,5.226980438E0,-8.189320221E0,1.057871748E1
5.323231625E0,4.337679749E0,5.272186432E0,-8.334518280E0,1.077383916E1
5.333248625E0,4.291126556E0,5.390141144E0,-7.921676788E0,1.049858809E1
5.343264625E0,3.745211792E0,5.426515503E0,-7.376510468E0,9.893765135E0
5.353281625E0,2.782413940E0,5.367089081E0,-6.823710022E0,9.116495544E0
5.363297625E0,2.182910614E0,5.265001373E0,-6.542145538E0,8.676693290E0
5.373314625E0,2.244881744E0,5.119503937E0,-6.862778778E0,8.851358492E0
5.383330625E0,2.986739044E0,4.994813232E0,-7.684120789E0,9.639215821E0
5.393347625E0,4.108656006E0,5.033133545E0,-8.249644775E0,1.050095836E1
5.403364625E0,4.880900116E0,5.158273315E0,-8.547375641E0,1.111254246E1
5.413380625E0,4.883444824E0,5.220094757E0,-8.041727142E0,1.075949804E1
5.423397625E0,4.210444336E0,5.136867828E0,-6.937623138E0,9.604471219E0
5.433413625E0,3.402424622E0,5.026397552E0,-6.169270935E0,8.654540400E0
5.443430625E0,3.042872314E0,4.895868988E0,-6.008505249E0,8.326508296E0
5.453446625E0,3.304079132E0,4.819677429E0,-6.348598022E0,8.628495018E0
5.463463625E0,4.007017365E0,4.856500854E0,-6.701863403E0,9.195475071E0
5.473479625E0,4.434827728E0,4.851710815E0,-7.166646881E0,9.724588543E0
5.483496625E0,4.292623444E0,4.760251007E0,-7.528743896E0,9.887800076E0
5.493513625E0,3.936663666E0,4.773124237E0,-7.530390472E0,9.746118020E0
5.503529625E0,3.741768951E0,4.861290894E0,-7.223977661E0,9.477280057E0
5.513546625E0,3.823948059E0,4.943320312E0,-6.888375549E0,9.301005977E0
5.523562625E0,4.040397949E0,5.071154480E0,-6.909032593E0,9.475027953E0
5.533579625E0,4.100722504E0,5.131029968E0,-7.007228394E0,9.604407496E0
5.543595625E0,3.968996429E0,5.191204834E0,-7.125033417E0,9.667866439E0
5.553612625E0,3.838318176E0,5.281467133E0,-7.322173462E0,9.810239839E0
5.563628625E0,3.810176697E0,5.409450989E0,-7.614066467E0,1.008729967E1
5.573645625E0,3.897744598E0,5.461542664E0,-7.617060242E0,1.015088508E1
5.583661625E0,3.947291565E0,5.419929199E0,-7.368876343E0,9.962784841E0
5.593678625E0,3.779340820E0,5.273533630E0,-7.111711121E0,9.626526323E0
5.603695625E0,3.652554474E0,5.077740784E0,-6.979985046E0,9.372555516E0
5.613711625E0,3.814966736E0,4.926405487E0,-6.677164764E0,9.132796478E0
5.623728625E0,4.077670441E0,4.986730042E0,-7.150480499E0,9.624149007E0
5.633744625E0,4.306993561E0,5.054389343E0,-7.836952972E0,1.027204347E1
5.643761625E0,4.590054932E0,5.064268799E0,-7.393125916E0,1.006845239E1
5.653777625E0,4.411027222E0,5.096002808E0,-7.071744232E0,9.769133649E0
5.663794625E0,3.932921448E0,5.068460083E0,-6.785090332E0,9.337805392E0
5.673810625E0,3.456462250E0,4.946763153E0,-6.456074524E0,8.837335302E0
5.683827625E0,2.994522858E0,4.909191284E0,-6.761888580E0,8.876399235E0
5.693844625E0,2.645897827E0,4.953199768E0,-7.346423035E0,9.246885673E0
5.703860625E0,2.484533386E0,5.011728058E0,-7.980205078E0,9.745460346E0
5.713877625E0,2.722538452E0,5.047204285E0,-8.559799805E0,1.030323539E1
5.723893625E0,3.616629181E0,5.052144012E0,-8.585845642E0,1.059815603E1
5.733910625E0,4.651876373E0,5.100942535E0,-8.836125183E0,1.121323668E1
5.743926625E0,4.832400970E0,4.996609497E0,-8.597221985E0,1.105578724E1
5.753943625E0,3.872596893E0,4.784799957E0,-7.823031921E0,9.954453565E0
5.763959625E0,2.765499115E0,4.637206879E0,-7.074288940E0,8.899282949E0
5.773976625E0,2.184257813E0,4.635410614E0,-6.925648041E0,8.615254757E0
5.783992625E0,2.201621704E0,4.755460968E0,-7.645351410E0,9.268923634E0
5.794009625E0,2.502795410E0,4.766088867E0,-8.212971039E0,9.820004136E0
5.804026625E0,2.840942230E0,4.694837036E0,-8.783135376E0,1.035644314E1
5.814042625E0,3.194956055E0,4.674030304E0,-9.156009979E0,1.076507419E1
5.824059625E0,3.454815674E0,4.745880890E0,-9.181457062E0,1.089762775E1
5.834075625E0,3.376678162E0,4.871170349E0,-8.924142151E0,1.071310268E1
5.844092625E0,2.916984100E0,5.091512146E0,-8.521778870E0,1.034664232E1
5.854108625E0,2.485880585E0,5.215604095E0,-8.031697998E0,9.893952754E0
5.864125625E0,2.246528320E0,5.253924408E0,-7.730823669E0,9.613336871E0
5.874141625E0,2.335593109E0,5.159470825E0,-7.895930328E0,9.717039164E0
5.884158625E0,2.734363861E0,4.977898407E0,-8.246651001E0,1.001316488E1
5.894174625E0,3.101101227E0,4.779860229E0,-8.558602295E0,1.028171026E1
5.904191625E0,3.193908234E0,4.635111237E0,-8.652457123E0,1.032232146E1
5.914208625E0,3.076103210E0,4.604874115E0,-8.678353271E0,1.029471185E1
5.924224625E0,3.090323639E0,4.695136414E0,-8.677904205E0,1.033926630E1
5.934241625E0,3.266806641E0,4.822521515E0,-8.566535797E0,1.035926035E1
5.944257625E0,3.409310303E0,4.824916534E0,-8.201894073E0,1.010812954E1
5.954274625E0,3.327280884E0,4.680167542E0,-7.602839813E0,9.527745773E0
5.964290625E0,3.073259125E0,4.638554077E0,-7.298672333E0,9.177784231E0
5.974307625E0,3.041974182E0,4.737648010E0,-7.455695801E0,9.342714566E0
5.984323625E0,3.394790497E0,4.846920776E0,-7.709268494E0,9.718542290E0
5.994340625E0,3.791166229E0,4.951553192E0,-7.869585114E0,1.004097556E1
6.004356625E0,3.988006897E0,5.031786346E0,-8.154293060E0,1.037861109E1
6.014373625E0,3.797752533E0,5.132377167E0,-8.314909058E0,1.048341225E1
6.024390625E0,3.463198242E0,5.206622772E0,-8.022716675E0,1.017185556E1
6.034406625E0,3.184777222E0,5.155129852E0,-6.829697571E0,9.130330698E0
6.044423625E0,2.957998810E0,5.088967438E0,-5.747298431E0,8.226711725E0
6.054439625E0,2.854563904E0,4.974156189E0,-5.813760223E0,8.166429624E0
6.064456625E0,3.234174500E0,4.908293152E0,-6.403384094E0,8.692212274E0
6.074472625E0,4.298161926E0,5.050497437E0,-7.118297424E0,9.728919700E0
6.084490500E0,5.340444489E0,5.278323669E0,-7.725883942E0,1.077359414E1
6.094506500E0,5.794001312E0,5.405858459E0,-8.026608582E0,1.127919333E1
6.104523500E0,5.651048584E0,5.458249512E0,-8.125852203E0,1.130293377E1
6.114540500E0,5.279221802E0,5.440586243E0,-7.998616791E0,1.102034628E1
6.124556500E0,5.139412537E0,5.364394684E0,-7.664511566E0,1.067403528E1
6.134573500E0,5.369633789E0,5.274731140E0,-7.172484741E0,1.039712907E1
6.144589500E0,5.644162903E0,5.181924133E0,-6.707102509E0,1.018303180E1
6.154606500E0,5.499713287E0,5.004842377E0,-6.252348175E0,9.715304996E0
6.164622500E0,4.792883148E0,4.676874390E0,-6.087540894E0,9.050029672E0
6.174639500E0,4.045487366E0,4.346361694E0,-6.310277710E0,8.664665763E0
6.184655500E0,3.718866577E0,4.222120056E0,-6.743925934E0,8.782756025E0
6.194672500E0,3.731141052E0,4.278852081E0,-7.026687927E0,9.033511605E0
6.204688500E0,3.660787354E0,4.391717377E0,-7.228168945E0,9.216017137E0
6.214705500E0,3.563489685E0,4.574187927E0,-7.451803894E0,9.441982589E0
6.224721500E0,3.587888947E0,4.714745636E0,-7.206015015E0,9.328902717E0
6.234738500E0,3.829935608E0,4.837041321E0,-6.781946869E0,9.168433827E0
6.244755500E0,4.278403015E0,4.969515839E0,-6.647526398E0,9.337581445E0
6.254771500E0,4.801864471E0,5.085075531E0,-6.801855469E0,9.756081866E0
6.264788500E0,5.172194366E0,5.080435181E0,-6.676266632E0,9.855706587E0
6.274804500E0,5.214855652E0,5.050647125E0,-6.527326355E0,9.762671007E0
6.284821500E0,4.932692413E0,5.039570160E0,-6.788533173E0,9.788406636E0
6.294837500E0,4.739144897E0,5.006788330E0,-6.887178040E0,9.744775271E0
6.304854500E0,4.604275360E0,4.900958405E0,-6.774013367E0,9.544946410E0
6.314870500E0,4.302652588E0,4.760999451E0,-6.935826874E0,9.449107338E0
6.324887500E0,3.988905029E0,4.722679138E0,-6.853198700E0,9.229376685E0
6.334904500E0,3.873045959E0,4.818479919E0,-6.659950562E0,9.086978333E0
6.344920500E0,3.737128601E0,4.890629883E0,-6.870712280E0,9.224482537E0
6.354937500E0,3.594924316E0,4.960684204E0,-7.066954193E0,9.352738111E0
6.364953500E0,3.395838318E0,5.067861328E0,-7.505991211E0,9.672375116E0
6.374970500E0,3.404819641E0,5.198539581E0,-8.021818542E0,1.014727467E1
6.384986500E0,3.748654633E0,5.266797638E0,-8.230035553E0,1.046542183E1
6.395003500E0,4.089645538E0,5.179678802E0,-7.647896118E0,1.010171214E1
6.405019500E0,4.070934448E0,5.118605804E0,-7.462731171E0,9.922952645E0
6.415036500E0,3.676055603E0,4.992268524E0,-7.708969116E0,9.892640429E0
6.425052500E0,3.178939362E0,4.733157349E0,-7.474257202E0,9.400689053E0
6.435069500E0,2.855761414E0,4.655319214E0,-7.717800751E0,9.454724674E0
6.445086500E0,2.825224915E0,4.751119995E0,-8.084089050E0,9.793239137E0
6.455102500E0,3.104693756E0,4.900060272E0,-8.281977539E0,1.011142255E1
6.465119500E0,3.396736450E0,5.070406036E0,-8.579858093E0,1.052904558E1
6.475135500E0,3.358865204E0,5.156327362E0,-8.738677826E0,1.068803899E1
6.485152500E0,3.039130096E0,5.138664093E0,-8.719966736E0,1.056787586E1
6.495168500E0,2.677781525E0,5.102738800E0,-8.798703003E0,1.051787201E1
6.505185500E0,2.538571014E0,5.117707672E0,-8.920399933E0,1.059286598E1
6.515201500E0,2.515369263E0,5.088817749E0,-8.827742615E0,1.049534127E1
6.525218500E0,2.356100464E0,4.983436890E0,-8.512348480E0,1.014129820E1
6.535234500E0,2.158960419E0,4.866679688E0,-8.269852753E0,9.835453514E0
6.545251500E0,2.116149445E0,4.783901825E0,-8.225395203E0,9.747868043E0
6.555268500E0,2.354304199E0,4.741839294E0,-8.406069489E0,9.934273622E0
6.565284500E0,2.653981018E0,4.707560577E0,-8.310568085E0,9.913136927E0
6.575301500E0,2.640958099E0,4.661606140E0,-8.034991150E0,9.657448642E0
6.585317500E0,2.383343811E0,4.658612366E0,-7.825426941E0,9.413835759E0
6.595334500E0,2.347568207E0,4.741839294E0,-7.938292236E0,9.540052411E0
6.605350500E0,2.656076660E0,4.878654785E0,-8.457861786E0,1.011886563E1
6.615367500E0,3.121608582E0,4.940326538E0,-8.823102264E0,1.058292965E1
6.625383500E0,3.566483459E0,4.901706848E0,-8.925489349E0,1.078938805E1
6.635400500E0,3.856280823E0,4.796625366E0,-8.699758759E0,1.065665610E1
6.645417500E0,3.919449463E0,4.699327698E0,-8.181536407E0,1.021681471E1
6.655433500E0,3.786076813E0,4.806953888E0,-7.976762238E0,1.005335362E1
6.665450500E0,3.671714630E0,5.034780121E0,-7.936795349E0,1.009074921E1
6.675466500E0,3.779939575E0,5.289700012E0,-7.644602966E0,1.003537861E1
6.685483500E0,4.126019897E0,5.553601227E0,-7.591164093E0,1.027094441E1
6.695499500E0,4.113595734E0,5.740562439E0,-8.147706757E0,1.078243258E1
6.705516500E0,3.736080780E0,5.614225159E0,-7.449408875E0,1.004845840E1
6.715532500E0,3.378923492E0,5.294340363E0,-6.173611908E0,8.806852323E0
6.725549500E0,3.205583954E0,5.152285767E0,-6.537654877E0,8.919795311E0
6.735565500E0,3.502266998E0,5.231321411E0,-7.756270752E0,9.989611294E0
6.745582500E0,4.106111298E0,5.422922974E0,-7.905211029E0,1.042883526E1
6.755598500E0,4.483775940E0,5.581443329E0,-7.197482758E0,1.015187246E1
6.765615500E0,4.476890259E0,5.704786835E0,-6.829547882E0,9.961418749E0
6.775632500E0,4.324357452E0,5.662424927E0,-6.934629364E0,9.942444762E0
6.785648500E0,4.163591766E0,5.387746124E0,-6.879693604E0,9.679539698E0
6.795665500E0,4.273313599E0,5.043761444E0,-6.668782196E0,9.390068935E0
6.805681500E0,4.754113770E0,4.767585754E0,-6.827452240E0,9.588825567E0
6.815698500E0,5.297633514E0,4.680466919E0,-7.429350586E0,1.025509344E1
6.825714500E0,5.585035858E0,4.712949371E0,-7.880961456E0,1.074774724E1
6.835731500E0,5.701493683E0,4.771926727E0,-7.538174286E0,1.058784145E1
6.845747500E0,5.429359589E0,4.821324005E0,-6.978787537E0,1.007107671E1
6.855764500E0,5.088368683E0,4.773124237E0,-6.110293579E0,9.274152169E0
6.865780500E0,4.657714233E0,4.565955048E0,-5.318889313E0,8.416224266E0
6.875797500E0,4.151167603E0,4.301904144E0,-5.545068970E0,8.153916949E0
6.885814500E0,3.955973511E0,4.151616669E0,-5.982459412E0,8.287066308E0
6.895830500E0,4.109254761E0,4.294569397E0,-6.331234131E0,8.684113462E0
6.905847500E0,4.196074219E0,4.548291779E0,-6.597081299E0,9.045190911E0
6.915863500E0,4.011957092E0,4.790338440E0,-6.807543640E0,9.240443306E0
6.925880500E0,3.706891479E0,4.946463776E0,-6.880292358E0,9.249160571E0
6.935896500E0,3.650309143E0,5.046755219E0,-6.622678070E0,9.091444324E0
6.945913500E0,3.901337128E0,5.124892731E0,-6.435417480E0,9.104919277E0
6.955929500E0,4.432582397E0,5.186564484E0,-6.581363983E0,9.479588057E0
6.965946500E0,5.078638916E0,5.244943085E0,-6.706204376E0,9.913383799E0
6.975963500E0,5.583389282E0,5.273383942E0,-6.644083557E0,1.015512976E1
6.985979500E0,5.765859833E0,5.208718414E0,-6.425088959E0,1.008254210E1
6.995996500E0,5.374423828E0,5.039420471E0,-6.190526733E0,9.623035457E0
7.006012500E0,4.677772522E0,4.952151947E0,-6.294710083E0,9.275167907E0
7.016029500E0,4.200864258E0,5.005291443E0,-6.423592072E0,9.163118358E0
7.026045500E0,3.828289032E0,5.114264832E0,-6.575675812E0,9.167934013E0
7.036062500E0,3.474275208E0,5.240003357E0,-6.652466125E0,9.153334308E0
7.046078500E0,3.159330139E0,5.324876862E0,-7.247778168E0,9.532364286E0
7.056095500E0,3.201242981E0,5.354365540E0,-7.415130157E0,9.690270492E0
7.066111500E0,3.567231903E0,5.353617096E0,-7.202272797E0,9.657074759E0
7.076128500E0,4.060605927E0,5.353916473E0,-7.796537018E0,1.029266397E1
7.086144000E0,4.320914612E0,5.250032501E0,-7.806715851E0,1.035267872E1
7.096160000E0,3.893253937E0,5.032534790E0,-7.648045807E0,9.948690230E0
7.106177000E0,3.099454651E0,4.841681671E0,-7.544311523E0,9.484995356E0
7.116193000E0,2.439477081E0,4.708907776E0,-7.476352844E0,9.166281292E0
7.126210000E0,2.110610962E0,4.725074158E0,-7.845485229E0,9.398544723E0
7.136226000E0,2.249372406E0,4.762795715E0,-7.325316925E0,9.022425799E0
7.146243000E0,2.698737946E0,5.181026001E0,-9.007518768E0,1.073599605E1
7.156259000E0,3.141666870E0,5.543721771E0,-1.029798523E1,1.210997199E1
7.166276000E0,3.432062988E0,5.494773560E0,-9.067094879E0,1.114377864E1
7.176292000E0,3.349285126E0,5.404211884E0,-8.868907013E0,1.091241167E1
7.186309000E0,2.907104645E0,5.237608337E0,-8.580905914E0,1.046497706E1
7.196326000E0,2.643802185E0,5.638474731E0,-1.072489746E1,1.240183506E1
7.206342000E0,3.138373718E0,5.593568115E0,-9.973909149E0,1.185817261E1
7.216359000E0,3.507805481E0,4.821324005E0,-6.910828857E0,9.127399408E0
7.226375000E0,2.978506165E0,4.414619751E0,-7.509733429E0,9.206327318E0
7.236392000E0,2.319875793E0,4.186943207E0,-7.255412292E0,8.692141546E0
7.246408000E0,2.114053802E0,4.398004303E0,-7.806566162E0,9.206201202E0
7.256425000E0,2.539618835E0,4.558021545E0,-7.984396362E0,9.538124004E0
7.266441000E0,2.884801025E0,4.688550110E0,-9.105714569E0,1.064042372E1
7.276458000E0,2.609523468E0,4.695884857E0,-9.032965851E0,1.050977732E1
7.286474000E0,2.049388275E0,4.696184235E0,-8.301287384E0,9.755281180E0
7.296491000E0,2.060315552E0,4.805157623E0,-7.846682739E0,9.428937902E0
7.306508000E0,2.709365845E0,4.927752686E0,-7.921976166E0,9.714994399E0
7.316524000E0,3.305276642E0,4.969815216E0,-8.387059021E0,1.029401166E1
7.326541000E0,3.547922058E0,4.976850586E0,-8.753047943E0,1.067579697E1
7.336557000E0,3.553909607E0,5.028343506E0,-8.825197906E0,1.076097719E1
7.346574000E0,3.336112518E0,5.130431213E0,-8.734037476E0,1.066463229E1
7.356590000E0,3.091970215E0,5.212610321E0,-8.420589294E0,1.037486917E1
7.366607000E0,2.740351410E0,5.331163788E0,-8.673862610E0,1.054356324E1
7.376623000E0,2.107766876E0,5.304818573E0,-8.091423798E0,9.902268446E0
7.386640000E0,1.192420349E0,5.081333313E0,-6.853049011E0,8.614295983E0
7.396656000E0,4.406835938E-1,4.862787781E0,-6.569837952E0,8.185577423E0
7.406673000E0,4.529580688E-1,4.856051788E0,-7.537874908E0,8.978082653E0
7.416689000E0,1.748963013E0,4.955445099E0,-8.794362030E0,1.024480899E1
7.426706000E0,3.859124908E0,4.993915100E0,-8.601862335E0,1.066883633E1
7.436723000E0,5.124144287E0,5.011877747E0,-8.020321655E0,1.075645540E1
7.446739000E0,4.980293427E0,5.200784912E0,-7.883356476E0,1.067702185E1
7.456756000E0,4.568200378E0,5.515280914E0,-7.168443146E0,1.013278616E1
7.466772000E0,4.549788666E0,5.829776917E0,-6.248905334E0,9.681719562E0
7.476789000E0,4.969964905E0,5.943390656E0,-5.611830139E0,9.566456039E0
7.486805000E0,6.065836029E0,5.996230774E0,-5.576503601E0,1.019051238E1
7.496822000E0,7.116201782E0,6.027066650E0,-5.832471313E0,1.099925369E1
7.506838000E0,7.603588257E0,5.960904236E0,-6.226152649E0,1.149399454E1
7.516855000E0,7.134613495E0,5.688620453E0,-6.827003174E0,1.139609954E1
7.526871000E0,5.881120148E0,5.210215302E0,-7.134613495E0,1.061304044E1
7.536888000E0,4.846322021E0,4.946763153E0,-7.913144531E0,1.051547237E1
7.546905000E0,4.221521301E0,4.931794281E0,-8.972790985E0,1.107496343E1
7.556921000E0,3.852388916E0,4.941224670E0,-8.806187439E0,1.080766112E1
7.566938000E0,3.302881622E0,4.805457001E0,-7.530091095E0,9.523849846E0
7.576954000E0,2.746937714E0,4.411625977E0,-6.239924011E0,8.120638043E0
7.586971000E0,2.556383972E0,4.055067444E0,-6.044280853E0,7.714402246E0
7.596987000E0,3.166664886E0,3.907923431E0,-5.916296997E0,7.765449260E0
7.607004000E0,4.400399323E0,4.105662231E0,-5.220843201E0,7.967256760E0
7.617020000E0,5.600154419E0,4.509821777E0,-4.671784973E0,8.574718469E0
7.627037000E0,6.309080200E0,4.920118561E0,-4.553530884E0,9.205797257E0
7.637053000E0,6.482419739E0,5.240302734E0,-4.559817810E0,9.501288169E0
7.647070000E0,6.429280243E0,5.436844025E0,-4.572241974E0,9.581248043E0
7.657087000E0,6.353088684E0,5.462141418E0,-4.847369843E0,9.679551596E0
7.667103000E0,6.390660553E0,5.412594452E0,-5.175337830E0,9.844838376E0
7.677120000E0,6.173911285E0,5.260959778E0,-5.351521454E0,9.717698298E0
7.687136000E0,5.896987152E0,5.042563934E0,-5.519472198E0,9.521894867E0
7.697153000E0,5.657036133E0,4.944068756E0,-5.788762207E0,9.484494797E0
7.707169000E0,5.270539856E0,4.934638367E0,-6.037993927E0,9.412046369E0
7.717186000E0,4.772226105E0,4.855752411E0,-5.846841431E0,8.974298200E0
7.727202000E0,4.284989319E0,4.777465210E0,-5.376669159E0,8.372208701E0
7.737219000E0,3.997886353E0,4.716841278E0,-5.403762817E0,8.211719644E0
7.747235000E0,4.038002930E0,4.695585480E0,-5.452112274E0,8.251031384E0
7.757252000E0,4.080065460E0,4.732408905E0,-5.670358429E0,8.437748095E0
7.767269000E0,3.835025024E0,4.733157349E0,-6.256240082E0,8.732166706E0
7.777285000E0,3.377276917E0,4.790787506E0,-7.049290924E0,9.167886716E0
7.787302000E0,2.816992035E0,4.932393036E0,-7.653284912E0,9.530829719E0
7.797318000E0,2.392474823E0,5.163362732E0,-7.818391571E0,9.670134293E0
7.807335000E0,2.314487000E0,5.466482391E0,-7.763006744E0,9.772591955E0
7.817351000E0,2.540816345E0,5.787415009E0,-8.132288818E0,1.029971075E1
7.827368000E0,3.164718933E0,6.030659180E0,-8.953780518E0,1.124964362E1
7.837384000E0,4.393513641E0,5.995332642E0,-9.099427643E0,1.174932164E1
7.847401000E0,5.591921539E0,5.811215515E0,-8.712482300E0,1.187211692E1
7.857417000E0,5.935008087E0,5.557044067E0,-8.126001892E0,1.149508445E1
7.867434000E0,5.129233704E0,5.366490326E0,-7.762407990E0,1.074072784E1
7.877451000E0,3.859424286E0,5.171445923E0,-7.240443420E0,9.698609677E0
7.887467000E0,3.070564728E0,4.976700897E0,-6.801406403E0,8.969673830E0
7.897484000E0,2.761457520E0,4.976850586E0,-7.414531403E0,9.347190236E0
7.907500000E0,2.537373505E0,5.106630707E0,-8.479117584E0,1.021818851E1
7.917517000E0,2.282752991E0,5.208568726E0,-9.028026123E0,1.066983622E1
7.927533000E0,2.296973419E0,5.230722656E0,-9.117689667E0,1.075959159E1
7.937550000E0,2.740950165E0,5.301226044E0,-9.459279327E0,1.118453266E1
7.947566000E0,3.277135162E0,5.285508728E0,-9.607022095E0,1.144426017E1
7.957583000E0,3.400029602E0,5.224884796E0,-9.600136414E0,1.144649473E1
7.967599000E0,3.023412781E0,5.134921875E0,-9.227561188E0,1.098436766E1
7.977616000E0,2.618055725E0,5.012626190E0,-8.619824982E0,1.030931714E1
7.987633000E0,2.343376923E0,4.848866730E0,-7.935597839E0,9.590445090E0
7.997649000E0,2.003733215E0,4.648283844E0,-7.409891052E0,8.973738067E0
8.007666000E0,1.757345581E0,4.505929871E0,-7.425308990E0,8.861539431E0
8.017682000E0,1.905687103E0,4.396806793E0,-8.016429749E0,9.339523501E0
8.027699000E0,2.322570190E0,4.362528076E0,-8.566236420E0,9.889711315E0
8.037715000E0,2.660866699E0,4.430037689E0,-8.849746857E0,1.024809567E1
8.047732000E0,2.877915344E0,4.609963531E0,-9.041049042E0,1.054868372E1
8.057748000E0,3.056793365E0,4.849764862E0,-8.825497284E0,1.052395397E1
8.067765000E0,2.996618500E0,5.006938019E0,-8.426127777E0,1.024933071E1
8.077781000E0,2.821782074E0,5.028193817E0,-7.939938812E0,9.812635501E0
8.087798583E0,2.506687317E0,4.946164398E0,-7.545509033E0,9.363905709E0
8.097814583E0,1.742077332E0,4.898563385E0,-6.947652283E0,8.677593497E0
8.107831583E0,1.616039429E0,4.943919067E0,-7.527845764E0,9.149993499E0
8.117848583E0,2.920576630E0,4.969815216E0,-8.532706146E0,1.029737371E1
8.127864583E0,4.714595947E0,4.886438599E0,-8.985215149E0,1.126227279E1
8.137881584E0,5.689069519E0,5.046006775E0,-9.536219330E0,1.219701502E1
8.147897583E0,5.623356171E0,5.467979279E0,-9.605076141E0,1.240074271E1
8.157914584E0,5.254523163E0,5.931565247E0,-9.014703827E0,1.200243163E1
8.167930583E0,4.855303345E0,6.290369110E0,-7.526049500E0,1.094459388E1
8.177947583E0,3.804189148E0,6.338269501E0,-5.782325592E0,9.385137431E0
8.187963584E0,2.373763733E0,5.998775482E0,-5.114414520E0,8.232696850E0
8.197980583E0,1.885329437E0,5.556744690E0,-5.694158936E0,8.176510541E0
8.207996584E0,2.964884491E0,5.331163788E0,-7.604336700E0,9.748732432E0
8.218013583E0,4.717440033E0,5.476810913E0,-9.436975708E0,1.188722881E1
8.228030583E0,6.038742371E0,5.688770142E0,-9.496551819E0,1.261003615E1
8.238046583E0,5.743705902E0,5.593717804E0,-8.532107391E0,1.170797561E1
8.248063583E0,4.019142151E0,5.326523438E0,-7.590864716E0,1.010675926E1
8.258079583E0,2.402204590E0,4.961133270E0,-6.671626282E0,8.654133548E0
8.268096583E0,1.965712280E0,4.639003143E0,-5.955216064E0,7.800575191E0
8.278112583E0,2.848576355E0,4.452940063E0,-5.574258270E0,7.682149291E0
8.288129583E0,4.221521301E0,4.400099945E0,-5.967340851E0,8.531780497E0
8.298145583E0,5.744454346E0,4.538262634E0,-6.598129120E0,9.855449830E0
8.308162584E0,6.599775696E0,4.470004578E0,-6.433321838E0,1.024332026E1
8.318178583E0,6.356830902E0,4.327500916E0,-5.793701935E0,9.628268037E0
8.328195584E0,5.668113098E0,4.373155975E0,-5.220843201E0,8.860541914E0
8.338212583E0,5.432053986E0,4.686604156E0,-5.003345490E0,8.746709959E0
8.348228584E0,5.567971344E0,5.026547241E0,-4.744084625E0,8.875518069E0
8.358245583E0,5.764063568E0,5.186115417E0,-4.360881500E0,8.895926562E0
8.368261583E0,5.690267029E0,5.126090240E0,-4.556674347E0,8.911746244E0
8.378278583E0,5.449268188E0,4.963677979E0,-5.180427246E0,9.009408933E0
8.388294583E0,5.253325653E0,4.859644318E0,-5.390290833E0,8.959286164E0
8.398311583E0,5.157674561E0,4.834496613E0,-5.471272430E0,8.939171459E0
8.408327583E0,5.034031677E0,4.807103577E0,-5.800737305E0,9.060809732E0
8.418344583E0,5.090164948E0,4.806804199E0,-5.680088196E0,9.015461592E0
8.428360583E0,5.386698303E0,4.912185059E0,-5.397775269E0,9.070945844E0
8.438377583E0,5.667364655E0,5.070855103E0,-5.501958618E0,9.386380678E0
8.448394584E0,5.719755707E0,5.171894989E0,-5.583838348E0,9.520680324E0
8.458410583E0,5.490282898E0,5.148094482E0,-5.387895813E0,9.256106330E0
8.468427584E0,5.038672028E0,5.039121094E0,-5.320984955E0,8.893471656E0
8.478443583E0,4.649631042E0,4.944068756E0,-5.777834930E0,8.913263217E0
8.488460583E0,4.609215088E0,4.894372101E0,-5.970484314E0,8.991464004E0
8.498476584E0,4.527634735E0,4.909490662E0,-6.421346741E0,9.264786496E0
8.508493583E0,4.317920837E0,4.969066772E0,-6.988367615E0,9.600695124E0
8.518509584E0,3.995790710E0,5.081632690E0,-7.007827148E0,9.534095424E0
8.528526583E0,3.564687195E0,5.213358765E0,-7.242838440E0,9.609620860E0
8.538542584E0,3.364253998E0,5.397475891E0,-7.386090546E0,9.747065430E0
8.548559583E0,3.285817108E0,5.637875977E0,-7.523504791E0,9.959184903E0
8.558576583E0,3.274440765E0,5.875881042E0,-8.434061279E0,1.078801789E1
8.568592583E0,3.186573486E0,5.874533844E0,-8.729247437E0,1.099382369E1
8.578609583E0,3.124452667E0,5.624254303E0,-8.618477783E0,1.075511972E1
8.588625583E0,3.258873138E0,5.323679352E0,-8.522527313E0,1.056386708E1
8.598642583E0,3.401975555E0,5.002297668E0,-8.103847961E0,1.011280235E1
8.608658583E0,3.442840576E0,4.805756378E0,-8.085735626E0,1.001636492E1
8.618675584E0,3.204536133E0,4.888234863E0,-8.295000458E0,1.014745902E1
8.628691583E0,2.650388489E0,5.196743317E0,-8.192763062E0,1.005743838E1
8.638708584E0,2.040406952E0,5.491929474E0,-7.940687256E0,9.868083095E0
8.648724583E0,1.954934692E0,5.786816254E0,-8.078400879E0,1.012766374E1
8.658741584E0,2.614612885E0,5.911357269E0,-8.449179840E0,1.063809124E1
8.668757583E0,3.409909058E0,5.691015472E0,-9.006770325E0,1.118646721E1
8.678774583E0,3.497027893E0,5.296436005E0,-9.299411774E0,1.125879646E1
8.688791583E0,3.047512665E0,4.919519806E0,-9.096733246E0,1.078144537E1
8.698807583E0,2.716251526E0,4.621639252E0,-8.612041168E0,1.014420154E1
8.708824583E0,2.649490356E0,4.535418549E0,-8.344547424E0,9.860085815E0
8.718840583E0,2.601140900E0,4.574636993E0,-8.080496521E0,9.643011025E0
8.728857583E0,2.542313232E0,4.622687073E0,-7.815697174E0,9.429619009E0
8.738873583E0,2.835104370E0,4.752467194E0,-8.289911041E0,9.967265738E0
8.748890583E0,3.265459442E0,4.806654510E0,-8.659791870E0,1.042876542E1
8.758906583E0,3.336711273E0,4.813091125E0,-8.708291016E0,1.049446619E1
8.768923583E0,3.088377686E0,4.853207703E0,-8.617579651E0,1.036119591E1
8.778939583E0,2.922821960E0,4.899012451E0,-8.470285950E0,1.021219640E1
8.788956583E0,2.824925537E0,4.973407745E0,-8.344996490E0,1.011701316E1
8.798973583E0,2.753673706E0,5.074747009E0,-8.243058472E0,1.006398475E1
8.808989584E0,2.734363861E0,5.091212769E0,-8.028554535E0,9.892162610E0
8.819006583E0,2.598596191E0,5.054539032E0,-7.850125580E0,9.691518901E0
8.829022584E0,2.681823120E0,5.054838409E0,-8.023165741E0,9.854681887E0
8.839039583E0,3.158282318E0,5.049000549E0,-8.378227386E0,1.027919490E1
8.849055584E0,3.836821289E0,4.974904633E0,-8.469986572E0,1.054568851E1
8.859072583E0,4.298311615E0,4.981640625E0,-8.387807465E0,1.066056003E1
8.869088583E0,4.304299164E0,5.147645416E0,-8.212671661E0,1.060533924E1
8.879105583E0,4.198618927E0,5.360652466E0,-7.583380280E0,1.019179338E1
8.889121583E0,3.943998413E0,5.527555389E0,-6.644233246E0,9.500254075E0
8.899138583E0,3.131787415E0,5.534890137E0,-5.792654114E0,8.602205701E0
8.909155583E0,2.315385132E0,5.400020599E0,-5.906118164E0,8.330874057E0
8.919171583E0,2.514171753E0,5.325176239E0,-6.733447723E0,8.945271367E0
8.929188584E0,3.757336578E0,5.364394684E0,-7.806566162E0,1.019003355E1
8.939204583E0,5.139113159E0,5.542374573E0,-9.096433868E0,1.182681314E1
8.949221584E0,6.027964783E0,5.721701660E0,-9.290280762E0,1.246529366E1
8.959237583E0,6.003864899E0,5.895041199E0,-8.962312775E0,1.229312632E1
8.969254584E0,5.135221252E0,5.956263885E0,-8.049510956E0,1.125354182E1
8.979270583E0,3.776646423E0,5.709277496E0,-5.955964508E0,9.073721450E0
8.989287583E0,2.484982452E0,5.201683044E0,-4.959636383E0,7.604645773E0
8.999303584E0,2.455194397E0,4.771028595E0,-5.457950134E0,7.653751567E0
9.009320583E0,3.662284241E0,4.667893066E0,-6.534212036E0,8.825954819E0
9.019336584E0,4.884642334E0,4.683460693E0,-7.304959259E0,9.957759014E0
9.029353583E0,5.121898956E0,4.619693298E0,-7.574848022E0,1.024469315E1
9.039370583E0,4.453838196E0,4.593198395E0,-7.332801361E0,9.731604285E0
9.049386583E0,3.658841400E0,4.664300537E0,-6.675667877E0,8.927897933E0
9.059403583E0,3.281176758E0,4.820126495E0,-5.969735870E0,8.344907831E0
9.069419583E0,3.449426880E0,4.990472260E0,-5.667664032E0,8.302154826E0
9.079436583E0,3.999083862E0,5.062472534E0,-5.658832397E0,8.581589829E0
9.089452583E0,4.674629059E0,5.106331329E0,-6.201154633E0,9.294143062E0
9.099469583E0,5.181325378E0,5.207371216E0,-6.608607330E0,9.881120306E0
9.109485583E0,5.165009308E0,5.146747284E0,-6.488706665E0,9.760616934E0
9.119502584E0,4.780458984E0,4.883444824E0,-6.319408722E0,9.307832618E0
9.129518583E0,4.449497223E0,4.643643494E0,-6.225254517E0,8.950711940E0
9.139535584E0,4.343517609E0,4.433779907E0,-6.045029297E0,8.664117305E0
9.149552583E0,4.354594574E0,4.248165894E0,-5.716761932E0,8.348100045E0
9.159568584E0,4.174818420E0,4.253255310E0,-5.858666840E0,8.357228411E0
9.169585583E0,3.982767792E0,4.525239716E0,-6.287824402E0,8.710738745E0
9.179601583E0,3.739074554E0,4.836442566E0,-6.559808807E0,8.966769028E0
9.189618583E0,3.348836060E0,5.129533081E0,-6.987319794E0,9.292440502E0
9.199634583E0,2.835403748E0,5.446424103E0,-7.807015228E0,9.932398335E0
9.209651583E0,2.360740814E0,5.674250336E0,-8.412955170E0,1.041863853E1
9.219667583E0,2.190844116E0,5.712720337E0,-8.377778320E0,1.037410917E1
9.229684583E0,2.367027740E0,5.610183563E0,-7.959997101E0,1.002190270E1
9.239700583E0,2.623743896E0,5.416636047E0,-7.682324524E0,9.759205305E0
9.249717583E0,2.967728577E0,5.275629272E0,-8.150251465E0,1.015215623E1
9.259733583E0,3.428620148E0,5.165009308E0,-8.830586700E0,1.078944015E1
9.269750583E0,3.986959076E0,5.100792847E0,-9.285939789E0,1.132000919E1
9.279767584E0,4.468208313E0,5.096601562E0,-9.499844971E0,1.166993091E1
9.289783583E0,4.570595398E0,5.123994598E0,-9.210047607E0,1.148784749E1
9.299800583E0,4.101321259E0,5.142106934E0,-8.448730774E0,1.070715422E1
9.309816584E0,3.498674469E0,5.115462341E0,-7.633226624E0,9.832335770E0
9.319833583E0,3.167113953E0,5.039420471E0,-6.842271423E0,9.068795273E0
9.329849584E0,2.995570679E0,5.000800781E0,-6.696474609E0,8.878300757E0
9.339866583E0,2.734064484E0,5.067711639E0,-7.344177704E0,9.332403549E0
9.349882583E0,2.555036774E0,5.105582886E0,-8.110583954E0,9.918506016E0
9.359899583E0,2.556683350E0,5.113516388E0,-8.547824707E0,1.028348126E1
9.369915583E0,2.726879425E0,5.060526581E0,-8.893905029E0,1.058991725E1
9.379932583E0,2.875220947E0,5.033133545E0,-9.414821777E0,1.105613847E1
9.389949583E0,2.884351959E0,5.067112885E0,-9.605225830E0,1.123634649E1
9.399965583E0,2.778821411E0,5.049449615E0,-8.896150360E0,1.060001326E1
9.409982583E0,2.522704010E0,5.036277008E0,-8.140372009E0,9.899180677E0
9.419998583E0,2.130220184E0,4.926704865E0,-7.400011597E0,9.141686414E0
9.430015584E0,1.933080139E0,4.835694122E0,-7.235952759E0,8.915141547E0
9.440031583E0,2.176773376E0,4.786296844E0,-7.564669189E0,9.212556635E0
9.450048584E0,2.701282654E0,4.770579529E0,-8.160579987E0,9.831094686E0
9.460064583E0,3.065774689E0,4.732708282E0,-8.725355530E0,1.038890424E1
9.470081583E0,3.099604340E0,4.657115479E0,-8.740174713E0,1.037723112E1
9.480097583E0,2.959795074E0,4.802612915E0,-8.775201874E0,1.043214482E1
9.490114583E0,2.992427216E0,5.038222961E0,-8.674611053E0,1.046838995E1
9.500131583E0,3.110681305E0,5.230722656E0,-8.624315643E0,1.055535968E1
9.510147583E0,3.264561310E0,5.372028809E0,-8.625213776E0,1.067287996E1
9.520164583E0,3.265010376E0,5.380561066E0,-8.354127502E0,1.045954953E1
9.530180583E0,3.079546051E0,5.366789703E0,-8.283474426E0,1.033934157E1
9.540197583E0,3.054847412E0,5.293591919E0,-8.257877655E0,1.027359487E1
9.550213583E0,3.336860962E0,5.173391876E0,-8.181686096E0,1.023907281E1
9.560230583E0,3.926634521E0,5.094356232E0,-7.843389587E0,1.014345524E1
9.570246583E0,4.619393921E0,5.235512695E0,-7.929011536E0,1.056497124E1
9.580263583E0,4.876409454E0,5.548062744E0,-7.688761139E0,1.066196123E1
9.590279583E0,4.326153717E0,5.710475006E0,-6.840475159E0,9.905414235E0
9.600296583E0,3.263812866E0,5.751639404E0,-6.706054688E0,9.418333172E0
9.610312583E0,2.580633545E0,5.757477264E0,-7.076234894E0,9.480575627E0
9.620329584E0,2.843936005E0,5.750890961E0,-7.473359070E0,9.849457580E0
9.630346583E0,3.933669891E0,5.920637970E0,-8.319998474E0,1.094303831E1
9.640362584E0,5.188809814E0,6.157744904E0,-9.089997253E0,1.214370700E1
9.650379583E0,5.666915588E0,6.214327240E0,-8.687783661E0,1.209170709E1
9.660395583E0,4.780758362E0,5.883814545E0,-6.890770569E0,1.024488375E1
9.670412583E0,3.245700531E0,5.299429779E0,-5.256469116E0,8.139348591E0
9.680428583E0,2.269430695E0,4.658911743E0,-5.016817474E0,7.212782534E0
9.690445583E0,2.364183655E0,4.197720795E0,-5.488636322E0,7.303105702E0
9.700461583E0,3.341950378E0,4.063000946E0,-5.987848206E0,7.970629533E0
9.710478583E0,4.331542511E0,4.186943207E0,-6.779252472E0,9.069234699E0
9.720494583E0,4.847220154E0,4.357139282E0,-7.359296265E0,9.830536478E0
9.730511583E0,4.788991241E0,4.614304504E0,-7.625592499E0,1.011809785E1
9.740527583E0,4.797972565E0,4.914729767E0,-7.020251312E0,9.821356215E0
9.750544583E0,5.042264557E0,5.253924408E0,-6.427783356E0,9.713112396E0
9.760561584E0,5.241949310E0,5.514682159E0,-6.257587280E0,9.851251213E0
9.770577583E0,5.506000214E0,5.475912781E0,-5.811963959E0,9.699514637E0
9.780594583E0,5.571713562E0,5.177732849E0,-5.513784027E0,9.394398532E0
9.790610583E0,5.243146820E0,4.771327972E0,-5.358107758E0,8.886252187E0
9.800627583E0,4.763095093E0,4.451742554E0,-5.402565308E0,8.467160004E0
9.810643584E0,4.665048981E0,4.394561462E0,-5.806275787E0,8.647987683E0
9.820660583E0,4.820575562E0,4.572691040E0,-6.255341949E0,9.125609842E0
9.830676584E0,4.821773071E0,4.818330231E0,-6.207291870E0,9.219342391E0
9.840693583E0,4.572990417E0,4.992268524E0,-5.929170227E0,8.999446981E0
9.850709583E0,4.309238892E0,5.070406036E0,-5.939798126E0,8.919627738E0
9.860726583E0,4.087998962E0,5.052443390E0,-5.890849915E0,8.771603755E0
9.870743583E0,3.874093781E0,4.924309845E0,-5.755830688E0,8.508056005E0
9.880759583E0,3.515589294E0,4.736001434E0,-5.436844025E0,8.021742368E0
9.890776583E0,3.070564728E0,4.536915436E0,-5.324577484E0,7.639574255E0
9.900792583E0,2.776276703E0,4.528383179E0,-5.832471313E0,7.888706368E0
9.910809583E0,2.690505066E0,4.671934662E0,-6.704108734E0,8.602956754E0
9.920825583E0,2.764451294E0,4.876708832E0,-7.310348053E0,9.212256436E0
9.930842584E0,2.810854797E0,5.154082031E0,-7.913892975E0,9.853688055E0
9.940858583E0,2.828817444E0,5.574258270E0,-8.932225342E0,1.090225724E1
9.950875584E0,3.046015778E0,6.022426300E0,-9.712552643E0,1.182715137E1
9.960891583E0,3.462749176E0,6.273304596E0,-9.377100220E0,1.180148257E1
9.970908583E0,3.991898804E0,6.292165375E0,-8.862919464E0,1.157920302E1
9.980924584E0,4.160298615E0,6.062243500E0,-8.316555634E0,1.110062964E1
9.990941583E0,3.689377899E0,5.612877960E0,-7.708070984E0,1.022400443E1
1.000095858E1,2.943479004E0,5.253625031E0,-7.484735413E0,9.606555512E0
1.001097458E1,2.411335602E0,4.975204010E0,-7.389982452E0,9.229248885E0
1.002099158E1,2.413281555E0,4.872367859E0,-7.879464569E0,9.573393250E0
1.003100758E1,2.788850555E0,4.806205444E0,-8.493787079E0,1.014996144E1
1.004102458E1,3.398682404E0,4.809498596E0,-9.127569122E0,1.086254284E1
1.005104058E1,3.875740356E0,4.866080933E0,-9.346114655E0,1.122719761E1
1.006105758E1,3.886068878E0,5.001100159E0,-9.282496948E0,1.123731657E1
1.007107358E1,3.514990540E0,5.169200592E0,-9.019942932E0,1.097429559E1
1.008109058E1,3.225492554E0,5.289400635E0,-8.636440430E0,1.062871886E1
1.009110621E1,3.119662628E0,5.223238220E0,-8.325536957E0,1.031159920E1
1.010112321E1,3.127147064E0,5.012027435E0,-8.122409363E0,1.004355523E1
1.011113921E1,3.212170258E0,4.817581787E0,-8.218060455E0,1.005304181E1
1.012115621E1,3.149001617E0,4.815635834E0,-8.638386383E0,1.037922343E1
1.013117321E1,2.988235931E0,4.856650543E0,-8.628806305E0,1.034277075E1
1.014118921E1,2.954256592E0,4.864584045E0,-8.560847626E0,1.028007403E1
1.015120621E1,3.035537567E0,4.884492645E0,-8.665030975E0,1.039978454E1
1.016122221E1,3.033441925E0,4.989873505E0,-8.836574249E0,1.059177284E1
1.017123921E1,3.077450409E0,5.127138062E0,-8.784183197E0,1.062638792E1
1.018125521E1,3.256029053E0,5.260510712E0,-8.931776276E0,1.086514269E1
1.019127221E1,3.441194000E0,5.321583710E0,-9.238787842E0,1.120340440E1
1.020128821E1,3.526366882E0,5.280718689E0,-9.149872742E0,1.113738858E1
1.021130521E1,3.545077972E0,5.099745026E0,-8.677455139E0,1.067113887E1
1.022132121E1,3.485202484E0,4.796475677E0,-7.832612000E0,9.823575012E0
1.023133821E1,3.416046295E0,4.559518433E0,-6.903943176E0,8.951145849E0
1.024135521E1,3.536545715E0,4.607568512E0,-6.496490479E0,8.714426644E0
1.025137121E1,3.839665375E0,4.881798248E0,-6.885980530E0,9.273171636E0
1.026138821E1,4.378245392E0,5.381459198E0,-8.390052795E0,1.088678657E1
1.027140421E1,4.908442841E0,5.964496765E0,-9.386530609E0,1.215627367E1
1.028142121E1,4.916975098E0,6.480174408E0,-9.543105011E0,1.253954376E1
1.029143721E1,4.273912354E0,6.664740601E0,-9.073681183E0,1.204229149E1
1.030145421E1,3.268602905E0,6.380182343E0,-7.431146851E0,1.032532979E1
1.031147021E1,2.332000580E0,5.894143066E0,-6.100563812E0,8.797501237E0
1.032148721E1,1.862127686E0,5.201533356E0,-5.545368347E0,7.827808050E0
1.033150321E1,2.307451630E0,4.536616058E0,-5.211412811E0,7.284506968E0
1.034152021E1,3.735332336E0,4.437522125E0,-6.113437042E0,8.427242891E0
1.035153721E1,5.209466858E0,4.713248749E0,-7.322173462E0,1.014728944E1
1.036155321E1,5.160967712E0,4.726870422E0,-7.525899811E0,1.027706474E1
1.037157021E1,3.567980347E0,4.543202362E0,-7.293283539E0,9.303932300E0
1.038158621E1,2.294129333E0,4.521497498E0,-6.639293518E0,8.353872601E0
1.039160321E1,2.604434052E0,4.765190735E0,-5.516029358E0,7.740587791E0
1.040161921E1,3.971391449E0,5.107379150E0,-5.771098938E0,8.669651364E0
1.041163621E1,5.440885620E0,5.289550323E0,-6.259682922E0,9.836981714E0
1.042165221E1,6.351591797E0,5.151537323E0,-6.131100311E0,1.022112744E1
1.043166921E1,5.833519135E0,4.784500580E0,-6.259383545E0,9.803125708E0
1.044168521E1,4.862638092E0,4.462669830E0,-5.911806335E0,8.860593963E0
1.045170221E1,4.737198944E0,4.504882050E0,-5.477409668E0,8.528600869E0
1.046171821E1,5.327870636E0,4.814737701E0,-5.513933716E0,9.053804155E0
1.047173521E1,5.875581665E0,5.122048645E0,-5.754333801E0,9.688663464E0
1.048175221E1,5.940696259E0,5.241500244E0,-5.743406525E0,9.785290765E0
1.049176821E1,5.624403992E0,5.125341797E0,-5.273383942E0,9.258057409E0
1.050178521E1,5.296436005E0,4.910388794E0,-5.201982422E0,8.900829938E0
1.051180121E1,5.055736542E0,4.730163574E0,-5.426216125E0,8.796518678E0
1.052181821E1,4.648583221E0,4.557572479E0,-5.489534454E0,8.515619848E0
1.053183421E1,4.094734955E0,4.432881775E0,-5.622757416E0,8.248193508E0
1.054185121E1,3.501967621E0,4.435875549E0,-6.233637085E0,8.414214189E0
1.055186721E1,3.207529907E0,4.669539642E0,-6.754404144E0,8.815601166E0
1.056188421E1,3.185375977E0,4.972060547E0,-6.947502594E0,9.117883443E0
1.057190021E1,3.351979523E0,5.357509003E0,-6.940616913E0,9.386737056E0
1.058191721E1,3.677253113E0,5.775140533E0,-7.217840424E0,9.948450081E0
1.059193321E1,3.929029541E0,6.021677856E0,-7.731721802E0,1.055828582E1
1.060195021E1,3.982019348E0,6.056854706E0,-7.924520874E0,1.073964609E1
1.061196721E1,3.809428253E0,5.984854431E0,-8.159532166E0,1.081240914E1
1.062198321E1,3.587888947E0,5.818999329E0,-8.306077423E0,1.075753794E1
1.063200021E1,3.368894348E0,5.530100098E0,-7.936945038E0,1.024336628E1
1.064201621E1,3.076103210E0,5.122497711E0,-7.383246460E0,9.498143084E0
1.065203321E1,2.781815186E0,4.839436340E0,-6.949149170E0,8.913434467E0
1.066204921E1,2.714754639E0,4.827012177E0,-7.319179688E0,9.178253134E0
1.067206621E1,3.093616791E0,4.998854828E0,-8.060288544E0,9.976335291E0
1.068208221E1,3.737427979E0,5.257516937E0,-8.557853851E0,1.071665595E1
1.069209921E1,4.409530334E0,5.615123291E0,-8.935817871E0,1.143776238E1
1.070211521E1,5.037773895E0,5.795797577E0,-8.580307159E0,1.151486458E1
1.071213221E1,5.141358490E0,5.743406525E0,-8.634494476E0,1.157474753E1
1.072214821E1,4.497247925E0,5.321284332E0,-8.212971039E0,1.077006031E1
1.073216521E1,3.225941620E0,4.745880890E0,-7.329657898E0,9.308811399E0
1.074218221E1,1.812580719E0,4.264631653E0,-6.875053253E0,8.290891944E0
1.075219821E1,1.047222290E0,4.015549622E0,-6.885381775E0,8.039265854E0
1.076221521E1,1.289568329E0,4.020639038E0,-7.522906036E0,8.626855741E0
1.077223121E1,2.300116882E0,4.267625427E0,-8.423283691E0,9.718789668E0
1.078224821E1,3.295846252E0,4.627327423E0,-9.369615784E0,1.095739301E1
1.079226421E1,3.599564667E0,4.920268250E0,-9.589957581E0,1.136367862E1
1.080228121E1,3.356470184E0,5.101541290E0,-8.795409851E0,1.070751372E1
1.081229721E1,3.218157806E0,5.405708771E0,-9.101822662E0,1.106442058E1
1.082231421E1,3.074157257E0,5.607339478E0,-8.993148651E0,1.103491828E1
1.083233021E1,2.711012421E0,5.616171112E0,-8.478967896E0,1.052539134E1
1.084234721E1,2.323019257E0,5.546266479E0,-8.103698273E0,1.009095714E1
1.085236421E1,2.517614594E0,5.536087646E0,-7.961793365E0,1.001882245E1
1.086238021E1,3.247496796E0,5.559439087E0,-8.173303528E0,1.040463786E1
1.087239721E1,3.760929108E0,5.506748657E0,-8.389304352E0,1.071677638E1
1.088241321E1,3.749253387E0,5.328768768E0,-8.327033844E0,1.057318165E1
1.089243021E1,3.342249756E0,5.084626465E0,-7.672145691E0,9.792133538E0
1.090244621E1,2.868484955E0,4.874762878E0,-7.144492950E0,9.112370634E0
1.091246321E1,2.536625061E0,4.792284393E0,-6.991211700E0,8.847457118E0
1.092247921E1,2.571352844E0,4.794380035E0,-7.694598999E0,9.423629297E0
1.093249621E1,2.917582855E0,4.807402954E0,-8.273145905E0,1.000341722E1
1.094251221E1,3.550915833E0,4.908891907E0,-8.715326385E0,1.061428928E1
1.095252921E1,4.052971802E0,5.154082031E0,-8.364306335E0,1.062792371E1
1.096254521E1,4.214934998E0,5.448220367E0,-7.992329865E0,1.055111932E1
1.097256221E1,4.556524658E0,5.595364380E0,-8.456813965E0,1.111700148E1
1.098257921E1,4.599185944E0,5.635480957E0,-9.293424225E0,1.180164780E1
1.099259521E1,4.082310791E0,5.704188080E0,-9.425898743E0,1.174949319E1
1.100261221E1,3.603905640E0,5.719755707E0,-8.561147003E0,1.090857366E1
1.101262821E1,3.399879913E0,5.644013214E0,-7.657925262E0,1.010237041E1
1.102264521E1,3.404520264E0,5.567821655E0,-7.132966919E0,9.668020132E0
1.103266121E1,3.578308868E0,5.478457489E0,-7.080725555E0,9.641289603E0
1.104267821E1,3.849844208E0,5.463338928E0,-7.541317749E0,1.007674779E1
1.105269421E1,3.975732422E0,5.370681610E0,-7.609126740E0,1.012667166E1
1.106271121E1,3.823199615E0,5.213358765E0,-6.496191101E0,9.164958469E0
1.107272721E1,3.403322754E0,5.231171722E0,-7.143295441E0,9.485485391E0
1.108274421E1,3.328029327E0,5.346731415E0,-8.121511230E0,1.027726913E1
1.109276008E1,3.353476410E0,5.382057953E0,-7.554340668E0,9.863083431E0
1.110277708E1,3.109633484E0,5.298232269E0,-6.936425629E0,9.265801967E0
1.111279408E1,2.984493713E0,5.054688721E0,-6.443350983E0,8.716298106E0
1.112281008E1,3.155138855E0,4.772525482E0,-6.648424530E0,8.771171496E0
1.113282708E1,3.484154663E0,4.641547852E0,-7.273524628E0,9.305238346E0
1.114284308E1,3.756588135E0,4.687502289E0,-7.608977051E0,9.694388268E0
1.115286008E1,3.625909882E0,4.832999725E0,-7.786058807E0,9.855344772E0
1.116287608E1,3.360811157E0,4.905299377E0,-7.209906921E0,9.345574965E0
1.117289308E1,3.419788513E0,5.014721832E0,-6.850204926E0,9.152469396E0
1.118290908E1,4.098177795E0,5.219645691E0,-7.114106140E0,9.728836958E0
1.119292608E1,4.802762604E0,5.277874603E0,-6.905140686E0,9.929927334E0
1.120294208E1,4.810546417E0,5.023254089E0,-5.937103729E0,9.144596173E0
1.121295908E1,4.343068542E0,4.734654236E0,-5.345084839E0,8.357579017E0
1.122297508E1,3.847299500E0,4.457879791E0,-5.468428345E0,8.036050910E0
1.123299208E1,3.602109375E0,4.238885193E0,-5.623954926E0,7.910259707E0
1.124300908E1,3.509152679E0,4.204756165E0,-6.076912994E0,8.180647803E0
1.125302508E1,3.438948669E0,4.399501190E0,-6.996151428E0,8.951430806E0
1.126304208E1,3.439397736E0,4.695585480E0,-7.486381989E0,9.482821050E0
1.127305808E1,3.559747467E0,5.026098175E0,-7.256609802E0,9.517975137E0
1.128307508E1,3.674409027E0,5.294040985E0,-6.955436096E0,9.481890262E0
1.129309108E1,3.681893463E0,5.540278931E0,-6.614744568E0,9.381144696E0
1.130310808E1,3.341800690E0,5.693709869E0,-6.652017059E0,9.372048596E0
1.131312408E1,2.861299896E0,5.699697418E0,-6.547534332E0,9.140229406E0
1.132314108E1,2.458038483E0,5.587430878E0,-6.159690857E0,8.671973734E0
1.133315708E1,2.132465515E0,5.415438538E0,-6.346203003E0,8.610962564E0
1.134317408E1,2.122885437E0,5.309009857E0,-7.200626221E0,9.194631380E0
1.135319108E1,2.524500275E0,5.250780945E0,-7.850874023E0,9.776503726E0
1.136320708E1,3.130739594E0,5.355113983E0,-8.685987396E0,1.067357266E1
1.137322408E1,3.799848175E0,5.514083405E0,-9.259893951E0,1.142758058E1
1.138324008E1,4.159999237E0,5.518574066E0,-8.372389526E0,1.085620375E1
1.139325708E1,3.912713470E0,5.513035583E0,-7.566465454E0,1.014663922E1
1.140327308E1,3.623215485E0,5.546715546E0,-7.171287231E0,9.763252755E0
1.141329008E1,3.899241486E0,5.660928040E0,-7.133266296E0,9.906244419E0
1.142330608E1,4.697082367E0,5.765710144E0,-7.630083160E0,1.065477195E1
1.143332308E1,5.388793945E0,5.716163177E0,-7.845934296E0,1.110280625E1
1.144333908E1,5.250182190E0,5.622008972E0,-8.077053680E0,1.115393178E1
1.145335608E1,4.402045898E0,5.491630096E0,-8.262518005E0,1.085381099E1
1.146337208E1,3.360511780E0,5.322631531E0,-7.881260834E0,1.008651169E1
1.147338908E1,2.386038208E0,5.193001099E0,-7.567363586E0,9.482902003E0
1.148340608E1,1.657652893E0,5.029840393E0,-7.497159576E0,9.179025504E0
1.149342208E1,1.626218262E0,4.984933777E0,-7.733368378E0,9.343400722E0
1.150343908E1,2.382445679E0,5.056634674E0,-8.543932800E0,1.021001417E1
1.151345508E1,3.282673645E0,5.191653900E0,-9.298663330E0,1.114425216E1
1.152347208E1,3.612288208E0,5.266647949E0,-9.577683105E0,1.151165585E1
1.153348808E1,3.177741852E0,5.256319427E0,-9.144933014E0,1.101620339E1
1.154350508E1,2.509232025E0,5.182672577E0,-8.487350464E0,1.025628872E1
1.155352108E1,2.204166412E0,5.090164948E0,-8.145611115E0,9.854902800E0
1.156353808E1,2.372566223E0,4.946613464E0,-7.858957214E0,9.584428191E0
1.157355408E1,2.613265686E0,4.848417664E0,-7.556136932E0,9.350482165E0
1.158357108E1,2.683469696E0,4.833598480E0,-7.332501984E0,9.183151377E0
1.159358708E1,2.685116272E0,4.915328522E0,-7.421267395E0,9.297607951E0
1.160360408E1,2.885699158E0,5.052443390E0,-7.565118256E0,9.543870182E0
1.161362108E1,3.220103760E0,5.188360748E0,-7.797584839E0,9.904064055E0
1.162363708E1,3.493435364E0,5.257666626E0,-7.998167725E0,1.018910379E1
1.163365408E1,3.529809723E0,5.264851685E0,-8.057594147E0,1.025197753E1
1.164367008E1,3.348536682E0,5.270090790E0,-8.123756561E0,1.024607122E1
1.165368708E1,3.208128662E0,5.266498260E0,-8.135731659E0,1.020873269E1
1.166370308E1,3.189716949E0,5.155878296E0,-7.600444794E0,9.722352405E0
1.167372008E1,3.103795624E0,5.086422729E0,-7.415130157E0,9.512591587E0
1.168373608E1,2.926564178E0,5.182822266E0,-7.394622803E0,9.492463902E0
1.169375308E1,2.828967133E0,5.271288300E0,-6.913972321E0,9.142896074E0
1.170376908E1,2.894381104E0,5.282215576E0,-6.496640167E0,8.859208589E0
1.171378608E1,3.370241547E0,5.323230286E0,-7.156318359E0,9.534579237E0
1.172380208E1,4.088148651E0,5.291645966E0,-7.695347443E0,1.019474613E1
1.173381908E1,4.647086334E0,5.309758301E0,-8.532406769E0,1.107207794E1
1.174383608E1,4.808450775E0,5.634433136E0,-9.679920502E0,1.218888414E1
1.175385208E1,4.754113770E0,5.888155518E0,-9.526639252E0,1.216670985E1
1.176386908E1,4.379891968E0,5.849835205E0,-7.794291687E0,1.068433472E1
1.177388508E1,3.362308044E0,5.485642548E0,-5.821394348E0,8.676751794E0
1.178390208E1,2.335742798E0,5.057532806E0,-5.465135193E0,7.803975601E0
1.179391808E1,1.790875854E0,4.722379761E0,-5.844296722E0,7.724241782E0
1.180393508E1,1.805695038E0,4.611310730E0,-6.947652283E0,8.531974769E0
1.181395108E1,2.400857391E0,4.659809875E0,-7.967930603E0,9.537602549E0
1.182396808E1,3.198398895E0,4.860991516E0,-8.747808838E0,1.050633873E1
1.183398408E1,3.958518219E0,5.083428955E0,-9.384734344E0,1.138351243E1
1.184400108E1,4.457281036E0,5.198090515E0,-9.215436401E0,1.148093059E1
1.185401708E1,4.674030304E0,5.320984955E0,-8.440348206E0,1.101811772E1
1.186403408E1,4.913232880E0,5.451812897E0,-7.509284363E0,1.050007013E1
1.187405108E1,4.866230621E0,5.375321960E0,-6.256838837E0,9.577176978E0
1.188406708E1,4.532424774E0,5.178630981E0,-5.483846283E0,8.799639949E0
1.189408408E1,4.270469513E0,5.009931793E0,-5.579197998E0,8.629239638E0
1.190410008E1,4.184847565E0,4.882247314E0,-6.110742645E0,8.870764547E0
1.191411708E1,4.189787292E0,4.820425873E0,-6.636599121E0,9.210606443E0
1.192413308E1,4.100123749E0,4.831652527E0,-7.134763184E0,9.542574421E0
1.193415008E1,3.890110474E0,4.903952179E0,-7.519612885E0,9.783981010E0
1.194416608E1,3.744313660E0,4.972659302E0,-7.529791718E0,9.769595110E0
1.195418308E1,3.852239227E0,5.121599579E0,-7.622149658E0,9.958297782E0
1.196419908E1,3.967050476E0,5.303621063E0,-7.841593323E0,1.026433007E1
1.197421608E1,3.910318451E0,5.334307251E0,-7.431446228E0,9.948458035E0
1.198423208E1,3.758534088E0,5.310357056E0,-7.016509094E0,9.568587692E0
1.199424908E1,3.742367706E0,5.271437988E0,-6.900051270E0,9.455373183E0
1.200426608E1,3.727997589E0,5.095104675E0,-6.583309937E0,9.121295270E0
1.201428208E1,3.532653809E0,4.856051788E0,-6.577322388E0,8.906292814E0
1.202429908E1,3.175945587E0,4.614005127E0,-6.551126862E0,8.619335058E0
1.203431508E1,2.644850006E0,4.438120880E0,-6.677763519E0,8.443025176E0
1.204433208E1,2.312091980E0,4.553680573E0,-7.550448761E0,9.115429369E0
1.205434808E1,2.725532227E0,4.922064514E0,-8.206235046E0,9.949750682E0
1.206436508E1,3.711082764E0,5.398673401E0,-8.502319336E0,1.073346374E1
1.207438108E1,4.718787231E0,5.820496216E0,-8.581504669E0,1.139242518E1
1.208439808E1,5.189558258E0,5.972879333E0,-8.112230530E0,1.133203806E1
1.209441450E1,4.926255798E0,5.879024506E0,-7.710466003E0,1.087576256E1
1.210443150E1,4.297413483E0,5.599705353E0,-7.599396973E0,1.037185119E1
1.211444850E1,3.549269257E0,5.345833282E0,-7.239994354E0,9.674335325E0
1.212446450E1,2.787802734E0,5.180726624E0,-6.854545898E0,9.033082082E0
1.213448150E1,2.258353729E0,5.090015259E0,-6.296955414E0,8.405954103E0
1.214449750E1,2.295476532E0,5.071603546E0,-6.228847046E0,8.353975734E0
1.215451450E1,3.026556244E0,5.122797089E0,-6.902745667E0,9.113231614E0
1.216453050E1,4.035308533E0,5.171745300E0,-7.701334991E0,1.011638399E1
1.217454750E1,4.597988434E0,5.287155304E0,-8.548423462E0,1.105310149E1
1.218456350E1,4.460574188E0,5.284460907E0,-8.948541412E0,1.130922820E1
1.219458050E1,3.902983704E0,5.239703979E0,-8.566984863E0,1.077408972E1
1.220459650E1,3.391347656E0,5.138065338E0,-8.001161499E0,1.009552077E1
1.221461350E1,3.241808624E0,5.039270782E0,-7.502099304E0,9.601305492E0
1.222462950E1,3.435655518E0,4.939278717E0,-7.255112915E0,9.425331108E0
1.223464650E1,3.742667084E0,4.914430389E0,-7.256160736E0,9.529483280E0
1.224466250E1,3.817960510E0,5.036726074E0,-7.615713043E0,9.896692233E0
1.225467950E1,3.647165680E0,5.167254639E0,-7.974965973E0,1.017852741E1
1.226469650E1,3.350033569E0,5.180427246E0,-8.001460876E0,1.010360963E1
1.227471250E1,3.048710175E0,5.098098450E0,-7.921078033E0,9.900945346E0
1.228472950E1,2.785856781E0,4.948559418E0,-7.803123322E0,9.650801619E0
1.229474550E1,2.507435760E0,4.845872955E0,-7.860005035E0,9.568144959E0
1.230476250E1,2.326761475E0,4.812642059E0,-7.937094727E0,9.569368592E0
1.231477850E1,2.375410309E0,4.862338715E0,-8.224197693E0,9.844914403E0
1.232479550E1,2.616109772E0,4.998705139E0,-8.479866028E0,1.018524478E1
1.233481150E1,2.847378845E0,5.130880280E0,-8.549471283E0,1.036952062E1
1.234482850E1,2.976111145E0,5.207969971E0,-8.432265015E0,1.034810524E1
1.235484450E1,3.066074066E0,5.259013824E0,-8.241561584E0,1.024604187E1
1.236486150E1,3.169059906E0,5.236859894E0,-7.891439667E0,9.987114811E0
1.237487750E1,3.275638275E0,5.178930359E0,-7.514673157E0,9.696465254E0
1.238489450E1,3.409759369E0,5.113366699E0,-7.169191589E0,9.443001959E0
1.239491150E1,3.628454590E0,5.052742767E0,-7.010521545E0,9.372475901E0
1.240492750E1,3.892505493E0,5.165608063E0,-7.465874634E0,9.877974981E0
1.241494450E1,4.144431610E0,5.345234528E0,-7.754624176E0,1.028989998E1
1.242496050E1,4.251159668E0,5.547463989E0,-7.842192078E0,1.050460336E1
1.243497750E1,4.270319824E0,5.641169128E0,-7.783514099E0,1.051862692E1
1.244499350E1,4.100123749E0,5.597460022E0,-7.348368988E0,1.010648803E1
1.245501050E1,3.944148102E0,5.632487183E0,-7.302115173E0,1.003005993E1
1.246502650E1,4.153113556E0,5.598657532E0,-7.758516083E0,1.043014334E1
1.247504350E1,4.272116089E0,5.453459473E0,-8.319250031E0,1.082594648E1
1.248505950E1,4.308041382E0,5.438640289E0,-9.163644104E0,1.149392892E1
1.249507650E1,4.676724701E0,5.371879120E0,-8.873098297E0,1.137808036E1
1.250509250E1,4.856351166E0,5.176535339E0,-7.396119690E0,1.025101221E1
1.251510950E1,4.278253326E0,5.137765961E0,-7.435038757E0,9.998994545E0
1.252512650E1,3.646866302E0,5.227579193E0,-7.833659821E0,1.009918037E1
1.253514250E1,3.229683838E0,5.302872620E0,-7.157515869E0,9.475302060E0
1.254515950E1,2.468516693E0,5.168003082E0,-5.838758240E0,8.178809712E0
1.255517550E1,1.511706390E0,4.726421356E0,-4.967869263E0,7.021683563E0
1.256519250E1,1.247805176E0,4.353995819E0,-5.659131775E0,7.248452924E0
1.257520850E1,2.244881744E0,4.399052124E0,-7.593708801E0,9.058452793E0
1.258522550E1,3.689228210E0,4.725672913E0,-8.764573975E0,1.061885805E1
1.259524150E1,4.595892792E0,4.993466034E0,-8.774603119E0,1.109281720E1
1.260525850E1,4.748425598E0,5.213957520E0,-8.091723175E0,1.073354008E1
1.261527450E1,4.523293762E0,5.429808655E0,-7.297175446E0,1.015833539E1
1.262529150E1,4.546794891E0,5.597010956E0,-6.220015411E0,9.523049256E0
1.263530750E1,4.899611206E0,5.684429169E0,-5.549260254E0,9.333446004E0
1.264532450E1,5.069058838E0,5.627697144E0,-5.583988037E0,9.409955103E0
1.265534150E1,4.791535950E0,5.418881378E0,-5.979615326E0,9.385035514E0
1.266535750E1,4.289330292E0,5.156776428E0,-6.405330048E0,9.274640182E0
1.267537450E1,3.904630280E0,4.972958679E0,-6.751560059E0,9.249865884E0
1.268539050E1,3.758983154E0,4.934338989E0,-6.900949402E0,9.279049427E0
1.269540750E1,3.574117584E0,4.905449066E0,-6.822213135E0,9.131283541E0
1.270542350E1,3.192261658E0,4.878804474E0,-7.036268005E0,9.137961207E0
1.271544050E1,2.895728302E0,4.875810699E0,-7.159910889E0,9.133624489E0
1.272545650E1,2.664309540E0,4.840783539E0,-6.988517303E0,8.909046228E0
1.273547350E1,2.439177704E0,4.825964355E0,-7.121291199E0,8.941605458E0
1.274548950E1,2.398013306E0,4.781057739E0,-7.127578125E0,8.911304666E0
1.275550650E1,2.718646545E0,4.854854279E0,-7.074139252E0,9.000227511E0
1.276552350E1,3.231929169E0,4.971012726E0,-7.266339569E0,9.378487320E0
1.277553950E1,3.780538330E0,5.154531097E0,-7.310946808E0,9.711416175E0
1.278555650E1,4.489164734E0,5.419480133E0,-7.379803619E0,1.019729701E1
1.279557250E1,5.103786621E0,5.653593292E0,-7.610623627E0,1.076723488E1
1.280558950E1,5.083279266E0,5.714965668E0,-7.667954407E0,1.083042407E1
1.281560550E1,4.302802277E0,5.542374573E0,-7.509733429E0,1.027755416E1
1.282562250E1,3.308719482E0,5.354066162E0,-7.427105255E0,9.735273060E0
1.283563850E1,2.679128723E0,5.313201141E0,-7.704029388E0,9.734469986E0
1.284565550E1,2.524051208E0,5.304968262E0,-7.873626709E0,9.823824119E0
1.285567150E1,2.591560822E0,5.371729431E0,-8.059091034E0,1.002599685E1
1.286568850E1,2.912493439E0,5.586532745E0,-8.304879913E0,1.042415448E1
1.287570450E1,3.536396027E0,5.738167419E0,-8.040379944E0,1.049191936E1
1.288572150E1,4.339476013E0,5.845494232E0,-7.754474487E0,1.063638705E1
1.289573750E1,4.971012726E0,5.833219757E0,-7.727979584E0,1.088389125E1
1.290575450E1,4.969515839E0,5.721102905E0,-7.888296204E0,1.093857043E1
1.291577150E1,4.216581573E0,5.469775543E0,-7.844437408E0,1.045146894E1
1.292578750E1,3.051703949E0,5.138514404E0,-7.644004211E0,9.702990655E0
1.293580450E1,2.245929565E0,4.850662994E0,-7.795489197E0,9.452131131E0
1.294582050E1,2.294428711E0,4.682263184E0,-8.191266174E0,9.710037753E0
1.295583750E1,3.047812042E0,4.590054932E0,-8.392298126E0,1.003934412E1
1.296585350E1,3.784729614E0,4.590653687E0,-8.396489410E0,1.029073923E1
1.297587050E1,4.095932465E0,4.688849487E0,-8.134833527E0,1.024390008E1
1.298588650E1,3.898343353E0,4.967270508E0,-7.853867798E0,1.007740525E1
1.299590350E1,3.369792480E0,5.343438263E0,-8.105793915E0,1.027675673E1
1.300591950E1,2.895428925E0,5.407804413E0,-8.145311737E0,1.019676226E1
1.301593650E1,2.549947357E0,5.199737091E0,-7.901917877E0,9.796928267E0
1.302595350E1,2.385140076E0,4.950056305E0,-8.003257141E0,9.707938786E0
1.303596950E1,2.524200897E0,4.686155090E0,-8.107739868E0,9.698818767E0
1.304598650E1,2.877166901E0,4.537514191E0,-8.211474152E0,9.813023599E0
1.305600250E1,3.194357300E0,4.588408356E0,-8.328830109E0,1.003129208E1
1.306601950E1,3.287014618E0,4.822671204E0,-8.226143646E0,1.008623130E1
1.307603550E1,3.135379944E0,5.117857361E0,-8.111182709E0,1.009031002E1
1.308605250E1,2.906954956E0,5.373076630E0,-7.783514099E0,9.894616279E0
1.309606821E1,2.967728577E0,5.583538971E0,-7.802524567E0,1.004304286E1
1.310608521E1,3.699706421E0,5.680387573E0,-8.097261658E0,1.056031614E1
1.311610121E1,4.313430176E0,5.572611694E0,-7.853568420E0,1.055169266E1
1.312611821E1,4.291126556E0,5.367388458E0,-7.331454163E0,1.004852457E1
1.313613421E1,3.836821289E0,5.196443939E0,-6.347849579E0,9.056457447E0
1.314615121E1,3.366798706E0,5.249433746E0,-5.883365479E0,8.573556878E0
1.315616821E1,3.361110535E0,5.309758301E0,-5.954916687E0,8.657460943E0
1.316618421E1,4.008813629E0,5.234614563E0,-6.818620605E0,9.485007290E0
1.317620121E1,4.818330231E0,5.419031067E0,-9.561666412E0,1.200031952E1
1.318621721E1,5.598358154E0,5.620661774E0,-1.032867142E1,1.302362876E1
1.319623421E1,5.459746399E0,5.634732513E0,-9.159452820E0,1.206045676E1
1.320625021E1,4.097728729E0,5.320086823E0,-7.282056885E0,9.905708304E0
1.321626721E1,2.723735962E0,5.062322845E0,-6.149512024E0,8.417977686E0
1.322628321E1,1.878144379E0,4.798271942E0,-5.717809753E0,7.697024640E0
1.323630021E1,1.472487946E0,4.451443176E0,-5.599705353E0,7.303442143E0
1.324631621E1,1.899998932E0,4.322112122E0,-6.400839386E0,7.953703161E0
1.325633321E1,3.040926361E0,4.570595398E0,-7.968080292E0,9.676150007E0
1.326634921E1,4.084556122E0,4.920567627E0,-9.382189636E0,1.135434132E1
1.327636621E1,4.594246216E0,5.275030518E0,-1.003153931E1,1.222966991E1
1.328638321E1,4.681065674E0,5.540428619E0,-9.272916870E0,1.177266802E1
1.329639921E1,4.620591431E0,5.661676483E0,-7.736661530E0,1.064238589E1
1.330641621E1,4.530029755E0,5.607938232E0,-6.477480011E0,9.691640113E0
1.331643221E1,4.226011963E0,5.395230560E0,-5.529201965E0,8.805666601E0
1.332644921E1,3.850143585E0,5.114863586E0,-4.932991791E0,8.082069236E0
1.333646521E1,3.573219452E0,4.862937469E0,-5.307063904E0,8.036229549E0
1.334648221E1,3.650009766E0,4.664599915E0,-6.086792450E0,8.492944482E0
1.335649821E1,4.019890594E0,4.633764038E0,-6.594237213E0,9.006400723E0
1.336651521E1,4.346661072E0,4.781357117E0,-7.181466064E0,9.660656975E0
1.337653121E1,4.490362244E0,5.111271057E0,-7.719147949E0,1.028949415E1
1.338654821E1,4.437522125E0,5.378764801E0,-7.706424408E0,1.039286729E1
1.339656421E1,4.059109039E0,5.474565582E0,-7.220534821E0,9.928915228E0
1.340658121E1,3.575913849E0,5.390739899E0,-6.838379517E0,9.413324117E0
1.341659821E1,3.240611115E0,5.208119659E0,-6.670428772E0,9.062046722E0
1.342661421E1,3.029999084E0,4.977599030E0,-6.658004608E0,8.847960890E0
1.343663121E1,2.760709076E0,4.690795441E0,-6.542594604E0,8.510618111E0
1.344664721E1,2.581381989E0,4.529580688E0,-6.471043396E0,8.309936030E0
1.345666421E1,2.930905151E0,4.732408905E0,-6.757098541E0,8.754671881E0
1.346668021E1,3.755839691E0,5.148842926E0,-7.683971100E0,9.983001910E0
1.347669721E1,4.568200378E0,5.589676208E0,-8.560997314E0,1.119837532E1
1.348671321E1,4.843028870E0,5.796246643E0,-8.832382965E0,1.162163468E1
1.349673021E1,4.468507690E0,5.740263062E0,-8.660240936E0,1.131008197E1
1.350674621E1,3.834575958E0,5.419629822E0,-8.077802124E0,1.045596707E1
1.351676321E1,3.213667145E0,4.961881714E0,-7.208410034E0,9.322505129E0
1.352677921E1,2.872825928E0,4.643942871E0,-6.965914307E0,8.851174856E0
1.353679621E1,2.918630676E0,4.640799408E0,-7.263944550E0,9.100566718E0
1.354681321E1,3.166964264E0,4.880600739E0,-7.522307281E0,9.509733595E0
1.355682921E1,3.498225403E0,5.401218109E0,-7.567812653E0,9.933907911E0
1.356684621E1,3.754642181E0,6.143674164E0,-7.964188385E0,1.073640381E1
1.357686221E1,4.094734955E0,6.537954254E0,-8.235723724E0,1.128445149E1
1.358687921E1,4.588408356E0,6.456074524E0,-7.830067291E0,1.113751962E1
1.359689521E1,4.679568787E0,6.021228790E0,-7.661817169E0,1.081004174E1
1.360691221E1,3.993395691E0,5.383704529E0,-7.626191254E0,1.015333820E1
1.361692821E1,3.037782898E0,4.869523773E0,-7.172035675E0,9.185776093E0
1.362694521E1,2.564916229E0,4.689597931E0,-7.028633881E0,8.830221868E0
1.363696121E1,2.936593323E0,4.766987000E0,-7.437733154E0,9.309544558E0
1.364697821E1,3.735781403E0,4.961133270E0,-8.155490570E0,1.025089910E1
1.365699421E1,3.994144135E0,5.101541290E0,-8.330776062E0,1.055370744E1
1.366701121E1,3.362906799E0,5.149291992E0,-8.027506714E0,1.011262647E1
1.367702821E1,2.633323975E0,5.041665802E0,-7.555837555E0,9.457455809E0
1.368704421E1,2.590063934E0,4.855153656E0,-7.713010712E0,9.474781393E0
1.369706121E1,2.797083435E0,4.706512756E0,-8.280031586E0,9.926422373E0
1.370707721E1,2.639910278E0,4.729265442E0,-8.618777161E0,1.017931224E1
1.371709421E1,2.164049835E0,4.799768829E0,-8.559051361E0,1.004879359E1
1.372711021E1,1.813927917E0,4.875211945E0,-8.313112793E0,9.806419851E0
1.373712721E1,1.897903290E0,4.881349182E0,-7.908354492E0,9.485340137E0
1.374714321E1,2.307301941E0,4.899910583E0,-7.738757172E0,9.445693650E0
1.375716021E1,2.730172577E0,5.053042145E0,-7.925419006E0,9.787713913E0
1.376717621E1,3.082090759E0,5.274431763E0,-8.139473877E0,1.017693219E1
1.377719321E1,3.309767303E0,5.323379974E0,-8.173004150E0,1.030004518E1
1.378720921E1,3.413501587E0,5.345982971E0,-8.181686096E0,1.035236757E1
1.379722621E1,3.490591278E0,5.307812347E0,-8.108638000E0,1.030083053E1
1.380724321E1,3.477568359E0,5.279670868E0,-8.054151306E0,1.023903118E1
1.381725921E1,3.325634308E0,5.274132385E0,-7.815547485E0,9.997954714E0
1.382727621E1,3.200644226E0,5.318889313E0,-7.486681366E0,9.725487384E0
1.383729221E1,3.116668854E0,5.457052002E0,-7.149282990E0,9.518681030E0
1.384730921E1,3.115920410E0,5.666167145E0,-6.859485626E0,9.426927027E0
1.385732521E1,3.197650452E0,5.769602051E0,-6.906338196E0,9.550433682E0
1.386734221E1,3.564387817E0,5.563480682E0,-7.158414001E0,9.741666635E0
1.387735821E1,4.114493866E0,5.513933716E0,-9.611662445E0,1.182017681E1
1.388737521E1,4.750371552E0,5.565576324E0,-1.129730713E1,1.345997095E1
1.389739121E1,5.103187866E0,5.354964294E0,-1.066651886E1,1.298047740E1
1.390740821E1,4.884043579E0,5.111420746E0,-8.940308533E0,1.139779015E1
1.391742421E1,4.124373322E0,4.929698639E0,-6.478976898E0,9.126309529E0
1.392744121E1,2.960842896E0,4.761149139E0,-4.487518158E0,7.181430985E0
1.393745821E1,2.085163879E0,4.733905792E0,-4.299060059E0,6.726045632E0
1.394747421E1,2.075733490E0,4.778063965E0,-4.769382019E0,7.062971727E0
1.395749121E1,2.841540985E0,4.959337006E0,-6.177204437E0,8.415891715E0
1.396750721E1,3.835174713E0,5.202132111E0,-7.986641693E0,1.027410284E1
1.397752421E1,4.302951965E0,5.353916473E0,-9.206754456E0,1.148669425E1
1.398754021E1,3.862867126E0,5.283862152E0,-8.870703278E0,1.102407902E1
1.399755721E1,3.003354492E0,5.143753510E0,-7.365433502E0,9.472483785E0
1.400757321E1,2.583477631E0,5.173391876E0,-6.509663086E0,8.707126602E0
1.401759021E1,2.867586823E0,5.304818573E0,-6.332281952E0,8.744252341E0
1.402760621E1,3.485801239E0,5.394631805E0,-6.401438141E0,9.068146054E0
1.403762321E1,4.048181763E0,5.387446747E0,-6.749314728E0,9.537589178E0
1.404763921E1,4.333787842E0,5.354814606E0,-7.344926147E0,1.006994025E1
1.405765621E1,4.204606476E0,5.259013824E0,-7.476801910E0,1.006173488E1
1.406767321E1,3.794010315E0,5.067262573E0,-6.972201233E0,9.417178680E0
1.407768921E1,3.498375092E0,4.976251831E0,-6.838379517E0,9.152330030E0
1.408770621E1,3.514691162E0,4.985382843E0,-7.151528320E0,9.399545381E0
1.409772221E1,3.612288208E0,4.948260040E0,-7.261250153E0,9.500508265E0
1.410773921E1,3.592978363E0,4.956492920E0,-7.362439728E0,9.575063150E0
1.411775521E1,3.447929993E0,4.955145721E0,-7.224875793E0,9.414909484E0
1.412777221E1,3.167862396E0,5.008734283E0,-7.318580933E0,9.417239412E0
1.413778821E1,2.859503632E0,5.062622223E0,-7.588469696E0,9.559904661E0
1.414780521E1,2.602039032E0,5.077142029E0,-7.867040405E0,9.717937180E0
1.415782121E1,2.600542145E0,5.125641174E0,-8.011789398E0,9.860212282E0
1.416783821E1,3.032394104E0,5.145100708E0,-7.730973358E0,9.769105607E0
1.417785421E1,3.783083038E0,5.172942810E0,-7.370373230E0,9.766957363E0
1.418787121E1,4.543801117E0,5.179529114E0,-6.848558350E0,9.714751767E0
1.419788821E1,4.865931244E0,5.240003357E0,-6.760391693E0,9.840620808E0
1.420790421E1,4.460424500E0,5.287454681E0,-6.906188507E0,9.774865903E0
1.421792121E1,3.626358948E0,5.313350830E0,-7.101532288E0,9.581958938E0
1.422793721E1,2.860401764E0,5.293292542E0,-7.275769958E0,9.441274949E0
1.423795421E1,2.464924164E0,5.196144562E0,-7.767497406E0,9.664873791E0
1.424797021E1,2.497556305E0,5.063520355E0,-8.240214386E0,9.988901792E0
1.425798721E1,2.813848572E0,5.033133545E0,-8.548872528E0,1.031180870E1
1.426800321E1,3.234024811E0,4.952151947E0,-8.568930817E0,1.041197871E1
1.427802021E1,3.425925751E0,4.894072723E0,-7.741451569E0,9.778496176E0
1.428803621E1,2.953059082E0,5.231770477E0,-6.833589478E0,9.098896934E0
1.429805321E1,2.299518127E0,5.843548279E0,-6.937623138E0,9.357641525E0
1.430806921E1,2.530787201E0,6.171665955E0,-7.019802246E0,9.683592726E0
1.431808621E1,3.809727631E0,5.975573730E0,-7.330106964E0,1.019568409E1
1.432810321E1,5.085674286E0,5.541177063E0,-8.454868011E0,1.131607349E1
1.433811921E1,5.592819672E0,5.123994598E0,-9.203760681E0,1.192661575E1
1.434813621E1,5.137466583E0,4.772974548E0,-8.494236145E0,1.101484892E1
1.435815221E1,4.099674683E0,4.585863647E0,-7.507039032E0,9.705313644E0
1.436816921E1,3.507506104E0,4.657863922E0,-6.860683136E0,9.003736362E0
1.437818521E1,3.506757660E0,4.988825684E0,-6.821015625E0,9.149425400E0
1.438820221E1,3.612737274E0,5.364244995E0,-7.408843231E0,9.834528611E0
1.439821821E1,3.493435364E0,5.527106323E0,-8.032296753E0,1.035716110E1
1.440823521E1,2.922672272E0,5.386249237E0,-8.147706757E0,1.019503896E1
1.441825121E1,1.936223602E0,4.987179108E0,-7.916138306E0,9.554379256E0
1.442826821E1,1.393751678E0,4.618645477E0,-8.057145081E0,9.391060464E0
1.443828421E1,1.641785889E0,4.509971466E0,-8.633446655E0,9.877839069E0
1.444830121E1,2.353106689E0,4.613106995E0,-9.114995270E0,1.048336807E1
1.445831821E1,2.865191803E0,4.784350891E0,-9.073531494E0,1.065027283E1
1.446833421E1,2.898722076E0,4.962031403E0,-8.563092957E0,1.031265758E1
1.447835121E1,2.857557678E0,5.140160980E0,-8.067772980E0,9.983779427E0
1.448836721E1,2.943928070E0,5.248685303E0,-7.683971100E0,9.760062590E0
1.449838421E1,2.918181610E0,5.270988922E0,-7.392078094E0,9.536347659E0
1.450840021E1,2.852767639E0,5.232219543E0,-7.495213623E0,9.575626967E0
1.451841721E1,3.114722900E0,5.130131836E0,-7.841743011E0,9.874851131E0
1.452843321E1,3.544030151E0,4.993016968E0,-8.129594421E0,1.017745909E1
1.453845021E1,3.816763000E0,4.874164124E0,-8.230185242E0,1.029859723E1
1.454846621E1,3.725153503E0,4.865332489E0,-8.152796173E0,1.019883887E1
1.455848321E1,3.319197693E0,4.932093658E0,-7.802524567E0,9.809281869E0
1.456849921E1,2.864143982E0,4.992717590E0,-7.451953583E0,9.416058724E0
1.457851621E1,2.585124207E0,5.049898682E0,-7.474706268E0,9.383793351E0
1.458853321E1,2.596799927E0,5.110821991E0,-7.756420441E0,9.644995041E0
1.459854921E1,2.843786316E0,5.130131836E0,-8.099207611E0,1.000012686E1
1.460856621E1,3.257226562E0,5.199587402E0,-8.855285339E0,1.077317560E1
1.461858221E1,3.886967010E0,5.145998840E0,-8.799750824E0,1.090987769E1
1.462859921E1,4.176614685E0,4.952900391E0,-8.121062164E0,1.038879123E1
1.463861521E1,4.089346161E0,4.891378326E0,-8.008346558E0,1.023630541E1
1.464863221E1,3.924239502E0,4.939727783E0,-7.484885101E0,9.788977026E0
1.465864821E1,3.574866028E0,5.088518372E0,-6.922055511E0,9.305242546E0
1.466866521E1,3.277284851E0,5.322481842E0,-7.157066803E0,9.502263634E0
1.467868121E1,3.516637115E0,5.464835815E0,-7.336992645E0,9.801154430E0
1.468869821E1,3.984564056E0,5.533542938E0,-7.903115387E0,1.043820296E1
1.469871421E1,4.105362854E0,5.479355621E0,-7.828121338E0,1.039984740E1
1.470873121E1,3.653153229E0,5.301824799E0,-6.899751892E0,9.437237460E0
1.471874821E1,2.989134064E0,5.228477325E0,-5.823489990E0,8.377644852E0
1.472876421E1,2.461930389E0,5.347779236E0,-5.544919281E0,8.087395986E0
1.473878121E1,2.684218140E0,5.480403442E0,-6.564898224E0,8.963132131E0
1.474879721E1,3.378923492E0,5.717809753E0,-8.293952637E0,1.062544694E1
1.475881421E1,3.999532928E0,5.867947540E0,-9.456884308E0,1.182631527E1
1.476883021E1,3.919299774E0,5.607938232E0,-9.130263519E0,1.140927666E1
1.477884721E1,3.137924652E0,4.999004517E0,-7.632627869E0,9.648503794E0
1.478886321E1,2.617307281E0,4.669539642E0,-7.237749023E0,9.002216883E0
1.479888021E1,2.909799042E0,4.629123688E0,-7.223977661E0,9.059887959E0
1.480889621E1,3.843108215E0,4.804858246E0,-7.102879486E0,9.397182584E0
1.481891321E1,4.781207428E0,5.054988098E0,-6.947352905E0,9.832525694E0
1.482892921E1,5.002447357E0,5.147196350E0,-6.694229279E0,9.814826308E0
1.483894621E1,4.448599091E0,5.050796814E0,-6.245761871E0,9.182054437E0
1.484896321E1,3.791166229E0,4.849764862E0,-5.938151550E0,8.553058192E0
1.485897921E1,3.603157196E0,4.839586029E0,-6.633006592E0,8.966666669E0
1.486899621E1,3.894451447E0,4.916076965E0,-7.539970551E0,9.807431912E0
1.487901221E1,4.162094879E0,4.955145721E0,-7.817643127E0,1.014849974E1
1.488902921E1,4.062102814E0,4.992867279E0,-7.989934845E0,1.026004200E1
1.489904521E1,3.662134552E0,4.980443115E0,-7.743696899E0,9.908626785E0
1.490906221E1,3.262465668E0,5.050647125E0,-7.383845215E0,9.522283800E0
1.491907821E1,2.915786591E0,5.169799347E0,-7.468868408E0,9.540054089E0
1.492909521E1,2.707719269E0,5.161865845E0,-7.127727814E0,9.207665634E0
1.493911121E1,2.821632385E0,5.093458099E0,-6.515950012E0,8.738565631E0
1.494912821E1,3.411106567E0,5.163811798E0,-6.986571350E0,9.333422712E0
1.495914421E1,4.070635071E0,5.275479584E0,-7.680378571E0,1.016803667E1
1.496916121E1,4.270319824E0,5.227728882E0,-7.809260559E0,1.032227355E1
1.497917721E1,3.913162537E0,5.125940552E0,-7.572902069E0,9.946705652E0
1.498919421E1,3.288960571E0,4.998705139E0,-7.195087738E0,9.358076847E0
1.499921121E1,2.778971100E0,4.939727783E0,-7.310797119E0,9.250478121E0
1.500922721E1,2.451601868E0,5.071753235E0,-7.800578613E0,9.621957145E0
1.501924421E1,2.420765991E0,5.133125610E0,-8.896449738E0,1.055253071E1
1.502926021E1,3.033441925E0,5.112468567E0,-9.366172943E0,1.109343501E1
1.503927721E1,3.831731873E0,4.993915100E0,-8.978030090E0,1.096477913E1
1.504929321E1,4.287534027E0,4.878804474E0,-8.571924591E0,1.075470001E1
1.505931021E1,4.111949158E0,4.697531433E0,-7.909402313E0,1.007638687E1
1.506932621E1,3.462449799E0,4.439917145E0,-7.005881195E0,8.987980540E0
1.507934321E1,2.738704834E0,4.498445435E0,-6.183641052E0,8.122433881E0
1.508935871E1,2.484982452E0,4.941673737E0,-5.938301239E0,8.115337252E0
1.509937571E1,3.204536133E0,5.432802429E0,-6.738387451E0,9.229856960E0
1.510939171E1,4.631518707E0,5.481900330E0,-7.736511841E0,1.055252634E1
1.511940871E1,5.639971619E0,5.272186432E0,-8.570577393E0,1.153516478E1
1.512942571E1,5.467679901E0,5.237458649E0,-9.093140717E0,1.183265417E1
1.513944171E1,4.478985901E0,5.361849976E0,-8.613238678E0,1.109047476E1
1.514945871E1,3.571572876E0,5.350773010E0,-8.114026794E0,1.035491842E1
1.515947471E1,2.903661804E0,5.166206818E0,-7.162455597E0,9.296328035E0
1.516949171E1,2.340832214E0,4.962181091E0,-6.518644409E0,8.520297035E0
1.517950771E1,2.230661316E0,4.952750702E0,-7.281757507E0,9.084579342E0
1.518952471E1,2.672093353E0,4.988975372E0,-8.170908508E0,9.939502201E0
1.519954071E1,3.098706207E0,4.949008484E0,-8.809779968E0,1.056914794E1
1.520955771E1,3.141367493E0,4.816533966E0,-8.986712036E0,1.066902912E1
1.521957371E1,2.922821960E0,4.671635284E0,-8.851243744E0,1.042648456E1
1.522959071E1,2.722089386E0,4.609963531E0,-8.530460815E0,1.007126090E1
1.523960671E1,2.600093079E0,4.687651978E0,-8.342002716E0,9.915824444E0
1.524962371E1,2.589465179E0,4.833448792E0,-7.950566711E0,9.658108933E0
1.525964071E1,2.503543854E0,4.868775330E0,-7.601492615E0,9.367784957E0
1.526965671E1,2.352657623E0,4.917274475E0,-7.781119080E0,9.500547368E0
1.527967371E1,2.281705170E0,4.903503113E0,-7.951614532E0,9.616584369E0
1.528968971E1,2.610720978E0,4.852758636E0,-8.533155212E0,1.015774917E1
1.529970671E1,3.225642242E0,4.724176025E0,-8.895401917E0,1.057595302E1
1.530972271E1,3.560645599E0,4.647535400E0,-8.540340271E0,1.035447702E1
1.531973971E1,3.370540924E0,4.679269409E0,-7.990533600E0,9.854173508E0
1.532975571E1,2.999911652E0,4.837340698E0,-7.651338959E0,9.536368429E0
1.533977271E1,2.927761688E0,5.051994324E0,-7.473658447E0,9.484197685E0
1.534978871E1,3.280428314E0,5.150639191E0,-7.588469696E0,9.740388407E0
1.535980571E1,3.613036652E0,5.169949036E0,-7.672744446E0,9.932442510E0
1.536982171E1,3.676205292E0,5.123695221E0,-7.363637238E0,9.694838391E0
1.537983871E1,3.568579102E0,5.030289459E0,-6.741381226E0,9.137001131E0
1.538985571E1,3.664828949E0,5.091362457E0,-6.614594879E0,9.116238715E0
1.539987171E1,4.097279663E0,5.363047485E0,-7.293133850E0,9.936789236E0
1.540988871E1,4.477638702E0,5.617667999E0,-7.871231689E0,1.065662847E1
1.541990471E1,4.533921661E0,5.686973877E0,-8.298742676E0,1.103481978E1
1.542992171E1,4.406835938E0,5.714965668E0,-9.039103088E0,1.156660798E1
1.543993771E1,4.280049591E0,5.799689484E0,-9.681567078E0,1.207012691E1
1.544995471E1,4.080813904E0,5.732778625E0,-9.258097687E0,1.162885057E1
1.545997071E1,3.285966797E0,5.325176239E0,-7.326514435E0,9.634982799E0
1.546998771E1,2.175875244E0,4.802014160E0,-5.329517212E0,7.496500969E0
1.548000371E1,1.517394562E0,4.373904419E0,-4.905898132E0,6.745469784E0
1.549002071E1,1.846410370E0,4.160448303E0,-5.672603760E0,7.273032019E0
1.550003771E1,3.061284027E0,4.325704651E0,-7.280559998E0,9.004983870E0
1.551005371E1,4.364474030E0,4.608915710E0,-8.401279449E0,1.052958850E1
1.552006971E1,4.962630157E0,4.772675171E0,-8.684191132E0,1.108247725E1
1.553008671E1,4.528981934E0,4.880600739E0,-8.608149261E0,1.088265476E1
1.554010371E1,3.654051361E0,4.920717316E0,-7.570806427E0,9.740773080E0
1.555011971E1,2.995870056E0,4.943470001E0,-6.483317871E0,8.685996987E0
1.556013671E1,2.829715576E0,4.902155914E0,-5.544619904E0,7.923460906E0
1.557015271E1,3.024460602E0,4.915927277E0,-5.988596649E0,8.317270751E0
1.558016971E1,3.498375092E0,5.012925568E0,-7.595505066E0,9.749858883E0
1.559018571E1,4.132456512E0,5.125491486E0,-8.468190308E0,1.072651420E1
1.560020271E1,4.504432983E0,5.229525146E0,-8.712332611E0,1.111497140E1
1.561021871E1,4.434228973E0,5.266797638E0,-8.524323578E0,1.095744662E1
1.562023571E1,3.908222809E0,5.224735107E0,-8.298592987E0,1.055645338E1
1.563025171E1,3.368145905E0,5.230722656E0,-8.052804108E0,1.017607588E1
1.564026871E1,3.285966797E0,5.266498260E0,-7.791896667E0,9.962290670E0
1.565028571E1,3.761827240E0,5.325625305E0,-7.596403198E0,1.001094254E1
1.566030171E1,4.314777374E0,5.314847717E0,-7.351213074E0,1.004516021E1
1.567031871E1,4.578528900E0,5.158423004E0,-6.862180023E0,9.729428012E0
1.568033471E1,4.203408966E0,4.909041595E0,-6.611900482E0,9.245786300E0
1.569035171E1,3.503913574E0,4.662055206E0,-6.739135895E0,8.912245603E0
1.570036771E1,2.938838654E0,4.465513916E0,-6.758146362E0,8.616851480E0
1.571038471E1,2.615361328E0,4.559967499E0,-7.578440552E0,9.223132855E0
1.572040071E1,2.622696075E0,4.826563110E0,-8.339008942E0,9.985655526E0
1.573041771E1,2.872376862E0,5.219346313E0,-8.055199127E0,1.001890003E1
1.574043371E1,3.369044037E0,5.710475006E0,-8.104746094E0,1.047124118E1
1.575045071E1,4.332290955E0,5.818999329E0,-7.428452454E0,1.038322705E1
1.576046671E1,5.098846893E0,5.589526520E0,-6.867419128E0,1.021775376E1
1.577048371E1,4.890779572E0,5.284760284E0,-6.880292358E0,9.959258959E0
1.578050071E1,3.770958252E0,5.034031677E0,-6.494544525E0,9.041056888E0
1.579051671E1,2.637964325E0,4.938979340E0,-6.495442657E0,8.575730174E0
1.580053371E1,2.598296814E0,4.834346924E0,-6.819069672E0,8.753386071E0
1.581054971E1,3.670966187E0,4.857848053E0,-7.750133514E0,9.855924611E0
1.582056671E1,4.540507965E0,5.026696930E0,-8.994495850E0,1.125987789E1
1.583058271E1,4.405189362E0,5.208119659E0,-9.221423950E0,1.147017277E1
1.584059971E1,3.769760742E0,5.275629272E0,-8.305179291E0,1.053657266E1
1.585061571E1,3.431015167E0,5.194647675E0,-7.771239624E0,9.957328700E0
1.586063271E1,3.402424622E0,4.973557434E0,-7.894134064E0,9.931269781E0
1.587064871E1,3.265309753E0,4.597090302E0,-7.603139191E0,9.465897347E0
1.588066571E1,2.724783783E0,4.372257843E0,-7.140151978E0,8.804706444E0
1.589068171E1,2.121987305E0,4.360133057E0,-7.096143494E0,8.594698533E0
1.590069871E1,1.888772278E0,4.525539093E0,-7.676786041E0,9.109391238E0
1.591071571E1,2.091301117E0,4.637506256E0,-8.163723450E0,9.619063634E0
1.592073171E1,2.641107788E0,4.715943146E0,-8.478818207E0,1.005514437E1
1.593074871E1,3.214714966E0,4.800966339E0,-8.848249969E0,1.056764863E1
1.594076471E1,3.553759918E0,4.953648834E0,-8.936865692E0,1.081829075E1
1.595078171E1,3.844904480E0,5.059329071E0,-8.555608521E0,1.065732322E1
1.596079771E1,3.944297791E0,5.032235413E0,-7.946974182E0,1.019976848E1
1.597081471E1,3.777843933E0,5.060077515E0,-7.498806152E0,9.803498506E0
1.598083071E1,3.635639648E0,5.197491760E0,-6.978637848E0,9.430439145E0
1.599084771E1,3.668571167E0,5.278024292E0,-6.469097443E0,9.119494315E0
1.600086371E1,3.800297241E0,5.220992889E0,-6.587351532E0,9.224653168E0
1.601088071E1,3.982169037E0,5.173840942E0,-7.163802795E0,9.692593607E0
1.602089671E1,4.306394806E0,5.234913940E0,-7.873327332E0,1.038935241E1
1.603091371E1,4.578828278E0,5.389991455E0,-8.693322144E0,1.120676252E1
1.604093071E1,4.674629059E0,5.569019165E0,-9.284442902E0,1.179266769E1
1.605094671E1,4.678670654E0,5.657784576E0,-9.151669006E0,1.173258416E1
1.606096371E1,4.269272003E0,5.545218658E0,-7.646698608E0,1.036571913E1
1.607097971E1,3.282523956E0,5.346282349E0,-5.454058228E0,8.312908614E0
1.608099671E1,2.065554657E0,5.183720398E0,-4.404440918E0,7.108908004E0
1.609101338E1,1.425485687E0,5.112318878E0,-5.726192322E0,7.807502306E0
1.610103037E1,2.136956177E0,4.949607239E0,-7.218289490E0,9.009378263E0
1.611104638E1,3.629502411E0,4.831203461E0,-8.967102814E0,1.081308224E1
1.612106337E1,4.758005676E0,4.981341248E0,-1.092039093E1,1.291151876E1
1.613107937E1,5.141358490E0,5.085524597E0,-1.174682236E1,1.379434533E1
1.614109637E1,5.040318604E0,5.027295685E0,-1.087129303E1,1.299474993E1
1.615111237E1,4.516857147E0,4.918921051E0,-8.508306885E0,1.081614852E1
1.616112937E1,3.638334045E0,4.787045288E0,-6.198609924E0,8.635742134E0
1.617114638E1,2.704126740E0,4.605323181E0,-4.125720520E0,6.748545979E0
1.618116238E1,2.128423920E0,4.450095978E0,-3.054697723E0,5.802130710E0
1.619117938E1,2.281854858E0,4.296964417E0,-3.696862335E0,6.110446458E0
1.620119538E1,3.237317963E0,4.341871033E0,-5.330115967E0,7.598829375E0
1.621121238E1,4.294719086E0,4.613705750E0,-7.257208557E0,9.612386218E0
1.622122838E1,4.781357117E0,4.990921326E0,-8.806636505E0,1.119497736E1
1.623124538E1,4.761448517E0,5.372328186E0,-9.327702942E0,1.177027376E1
1.624126138E1,4.505780182E0,5.605692902E0,-9.399254150E0,1.183519440E1
1.625127837E1,4.274960175E0,5.677244110E0,-8.998836823E0,1.146671048E1
1.626129438E1,4.260140991E0,5.669460297E0,-7.892936554E0,1.061084487E1
1.627131137E1,4.398453369E0,5.493875427E0,-6.633904724E0,9.671491671E0
1.628132738E1,4.395309906E0,5.287754059E0,-5.916746063E0,9.071216905E0
1.629134437E1,4.022734680E0,5.275928650E0,-6.634503479E0,9.382667736E0
1.630136138E1,3.594026184E0,5.182073822E0,-7.003336487E0,9.424310864E0
1.631137737E1,3.233725433E0,5.073100433E0,-7.172185364E0,9.361280419E0
1.632139438E1,3.108286285E0,5.054089966E0,-7.783065033E0,9.786795713E0
1.633141037E1,3.390449524E0,5.113965454E0,-8.358169098E0,1.036854770E1
1.634142738E1,3.917054443E0,5.229824524E0,-8.734037476E0,1.090769410E1
1.635144337E1,4.328848114E0,5.338797913E0,-8.759484558E0,1.113419323E1
1.636146038E1,4.317920837E0,5.321733398E0,-8.223299561E0,1.070457577E1
1.637147638E1,3.905678101E0,5.188510437E0,-7.299869843E0,9.770520032E0
1.638149338E1,3.323089600E0,4.969066772E0,-6.300697632E0,8.685236884E0
1.639150938E1,2.749482422E0,4.732857971E0,-5.943989410E0,8.080260409E0
1.640152638E1,2.363435211E0,4.589755554E0,-6.148613892E0,8.028520090E0
1.641154238E1,2.241738281E0,4.526287537E0,-6.945856018E0,8.588223635E0
1.642155938E1,2.479743347E0,4.628973999E0,-7.754474487E0,9.365276393E0
1.643157637E1,2.993624725E0,4.908891907E0,-8.385711823E0,1.016755484E1
1.644159237E1,3.565136261E0,5.317392426E0,-8.716673584E0,1.081504772E1
1.645160937E1,4.121229858E0,5.610333252E0,-8.537945251E0,1.101621005E1
1.646162537E1,4.556075592E0,5.545667725E0,-8.064629517E0,1.079585590E1
1.647164237E1,4.540058899E0,5.348827057E0,-7.532785492E0,1.029392748E1
1.648165837E1,4.230053558E0,5.211412811E0,-6.960375824E0,9.669488518E0
1.649167538E1,3.863166504E0,5.168302460E0,-6.565496979E0,9.205495985E0
1.650169137E1,3.504662018E0,5.127437439E0,-6.705904999E0,9.140154944E0
1.651170838E1,3.318149872E0,5.074297943E0,-6.723568268E0,9.053451742E0
1.652172437E1,3.347937927E0,5.011728058E0,-6.966812439E0,9.212088908E0
1.653174138E1,3.537743225E0,5.003644867E0,-7.949219513E0,1.003704040E1
1.654175738E1,3.786974945E0,5.098248138E0,-8.654702454E0,1.073485854E1
1.655177438E1,3.791465607E0,5.171745300E0,-8.952882385E0,1.101255029E1
1.656179137E1,3.671714630E0,5.166506195E0,-9.038204956E0,1.103917675E1
1.657180738E1,3.485501862E0,5.065017242E0,-8.701704712E0,1.065470731E1
1.658182437E1,3.253634033E0,4.959935760E0,-8.149952087E0,1.008011985E1
1.659184038E1,3.196003876E0,4.906945953E0,-7.555238800E0,9.558984919E0
1.660185737E1,3.279380493E0,4.938979340E0,-7.479496307E0,9.544145763E0
1.661187338E1,3.074007568E0,4.994962921E0,-7.340136108E0,9.395572106E0
1.662189037E1,2.512674866E0,4.959786072E0,-6.936575317E0,8.889830707E0
1.663190637E1,2.052382050E0,4.866829376E0,-6.968009949E0,8.743652721E0
1.664192337E1,1.999691620E0,4.797673187E0,-7.564818878E0,9.178394154E0
1.665193937E1,2.121538239E0,4.813689880E0,-8.432564392E0,9.938846864E0
1.666195637E1,2.385589142E0,4.936434631E0,-9.024283905E0,1.055921978E1
1.667197237E1,2.702480164E0,4.959337006E0,-9.036109314E0,1.065596988E1
1.668198938E1,2.854114838E0,4.945865021E0,-8.788973236E0,1.048110695E1
1.669200638E1,2.925666046E0,4.991819458E0,-8.387208710E0,1.018935981E1
1.670202238E1,3.206631775E0,5.080584869E0,-7.964936829E0,9.976725346E0
1.671203938E1,3.634142761E0,5.128485260E0,-7.567662964E0,9.837574773E0
1.672205538E1,3.872297516E0,5.179529114E0,-7.199428711E0,9.677498833E0
1.673207238E1,3.717220001E0,5.171146545E0,-6.362818451E0,9.002440767E0
1.674208838E1,3.427572327E0,5.194797363E0,-5.825585632E0,8.524765079E0
1.675210537E1,3.672014008E0,5.442981262E0,-6.290069733E0,9.092563397E0
1.676212138E1,4.312082977E0,5.719606018E0,-6.777755585E0,9.861334766E0
1.677213837E1,4.584217072E0,5.998326416E0,-7.345973969E0,1.053367455E1
1.678215438E1,4.440515900E0,6.199058990E0,-7.961194611E0,1.102393457E1
1.679217137E1,4.211641846E0,6.071673889E0,-8.917406158E0,1.158116071E1
1.680218738E1,4.236041107E0,5.605543213E0,-1.031055908E1,1.247693021E1
1.681220437E1,4.640050964E0,5.236710205E0,-1.042656784E1,1.255653311E1
1.682222138E1,4.683760071E0,5.051694946E0,-9.427545319E0,1.167629397E1
1.683223737E1,4.206702118E0,4.897066498E0,-7.763904877E0,1.009731756E1
1.684225438E1,3.523073730E0,4.764891357E0,-5.553152161E0,8.121190619E0
1.685227038E1,2.703078918E0,4.472249908E0,-3.862567749E0,6.498237030E0
1.686228738E1,2.014211426E0,4.181255035E0,-3.938459930E0,6.086986772E0
1.687230338E1,2.242786102E0,4.092339935E0,-5.524711304E0,7.231858035E0
1.688232038E1,3.198847961E0,4.283642120E0,-7.364385681E0,9.100351342E0
