"Time (s)","Acceleration x (m/s^2)","Acceleration y (m/s^2)","Acceleration z (m/s^2)","Absolute acceleration (m/s^2)"
8.029998280E-4,6.312073975E0,5.491330719E0,-4.322112122E0,9.416880806E0
1.081899973E-2,6.236481171E0,5.562732239E0,-4.246070251E0,9.373729244E0
2.083599987E-2,5.711073761E0,5.516478424E0,-4.405638428E0,9.080613837E0
3.085300000E-2,5.357359314E0,5.497467957E0,-4.736450500E0,9.019834594E0
4.086999968E-2,5.543871460E0,5.521118774E0,-5.473966827E0,9.548904446E0
5.088599958E-2,5.969137115E0,5.567372589E0,-6.137836304E0,1.021270140E1
6.090299971E-2,6.564898224E0,5.537734222E0,-6.062542877E0,1.051279293E1
7.091999985E-2,7.082222443E0,5.372328186E0,-5.981710968E0,1.071450657E1
8.093699999E-2,7.248975677E0,4.963378601E0,-5.289400635E0,1.025478106E1
9.095299989E-2,7.231911163E0,4.519551544E0,-4.223317566E0,9.516475004E0
1.009699996E-1,6.702162781E0,4.329746246E0,-4.178860016E0,9.007139364E0
1.109869997E-1,6.248905334E0,4.386029205E0,-4.897216187E0,9.070214796E0
1.210039998E-1,6.437363434E0,4.703668671E0,-5.509293365E0,9.691050528E0
1.310199997E-1,6.876550140E0,5.174589386E0,-5.992189178E0,1.048664142E1
1.410369999E-1,7.290589142E0,5.598208466E0,-6.603218536E0,1.131791160E1
1.510540000E-1,7.463928680E0,5.844446411E0,-6.858437805E0,1.170068179E1
1.610709997E-1,7.770940247E0,5.763315125E0,-6.397995300E0,1.159903692E1
1.710869996E-1,7.903115387E0,5.557792511E0,-5.629194031E0,1.118195492E1
1.811039997E-1,7.632927246E0,5.417384491E0,-5.199886780E0,1.070740191E1
1.911209999E-1,6.984026642E0,5.172194366E0,-4.736001434E0,9.897369968E0
2.011380000E-1,6.130501556E0,4.978646851E0,-4.692142639E0,9.186194878E0
2.111539999E-1,5.662873993E0,4.936584320E0,-5.091362457E0,9.075239847E0
2.211709996E-1,5.855074310E0,5.070406036E0,-5.804629211E0,9.679082231E0
2.311879997E-1,6.260281677E0,5.321284332E0,-6.124064941E0,1.024750531E1
2.412049999E-1,6.368207245E0,5.536237335E0,-6.106850739E0,1.041621876E1
2.512209998E-1,6.026617584E0,5.549260254E0,-6.137087860E0,1.023612506E1
2.612379999E-1,5.537883911E0,5.346731415E0,-5.514532471E0,9.469200780E0
2.712549996E-1,5.349874878E0,5.106780396E0,-4.684209137E0,8.754552099E0
2.812719997E-1,5.517226868E0,4.916076965E0,-4.698728943E0,8.757034813E0
2.912879996E-1,6.083050232E0,4.858746185E0,-5.039121094E0,9.273815613E0
3.013049997E-1,6.574178925E0,4.937482452E0,-5.325924683E0,9.796123479E0
3.113219999E-1,6.707252197E0,5.053940277E0,-5.404960327E0,9.987148767E0
3.213390000E-1,6.604565735E0,5.199886780E0,-5.389991455E0,9.985545501E0
3.313549999E-1,6.658453674E0,5.324278107E0,-5.572162628E0,1.018488778E1
3.413719996E-1,6.994504852E0,5.218897247E0,-4.925058289E0,1.002078768E1
3.513889997E-1,7.055877228E0,4.977748718E0,-4.170327759E0,9.589317983E0
3.614059999E-1,6.808292084E0,4.732408905E0,-4.085903320E0,9.243545915E0
3.714219998E-1,6.515800323E0,4.640649719E0,-4.625082092E0,9.240274240E0
3.814389999E-1,6.630312195E0,4.788691864E0,-5.001998291E0,9.587105740E0
3.914559996E-1,6.854845276E0,5.038222961E0,-5.031337280E0,9.883670836E0
4.014719999E-1,6.832092590E0,5.234614563E0,-5.289550323E0,1.010237702E1
4.114889996E-1,6.700965271E0,5.287754059E0,-5.322631531E0,1.005950719E1
4.215059998E-1,6.752458191E0,5.384602661E0,-5.329517212E0,1.014856597E1
4.315229999E-1,6.755751343E0,5.574407959E0,-5.226830750E0,1.019970392E1
4.415389998E-1,6.599326630E0,5.785768433E0,-5.350473633E0,1.027880326E1
4.515559999E-1,6.495592346E0,5.804329834E0,-5.460644531E0,1.028112851E1
4.615729996E-1,6.664890289E0,5.529651031E0,-5.119653625E0,1.006025131E1
4.715899997E-1,6.826554108E0,5.181774445E0,-4.816833344E0,9.831302601E0
4.816059996E-1,6.660399628E0,4.863087158E0,-4.861590271E0,9.573170837E0
4.916229998E-1,6.390660553E0,4.733905792E0,-5.002147980E0,9.395312170E0
5.016399999E-1,6.362070007E0,4.868475952E0,-5.415139160E0,9.669629000E0
5.116569996E-1,6.559958496E0,5.300926666E0,-5.771098938E0,1.021951378E1
5.216739997E-1,6.662794647E0,5.639672241E0,-5.687872009E0,1.041876305E1
5.316899996E-1,6.281387787E0,5.551954651E0,-5.214107208E0,9.872534981E0
5.417069998E-1,5.663921814E0,5.240901489E0,-4.592749329E0,8.980000286E0
5.517239999E-1,5.351970520E0,4.938230896E0,-4.540058899E0,8.581482834E0
5.617399998E-1,5.616021423E0,4.777016144E0,-4.863835602E0,8.832693622E0
5.717569999E-1,6.238277435E0,4.735252991E0,-5.051694946E0,9.319782620E0
5.817739996E-1,6.478827209E0,4.615502014E0,-5.044659576E0,9.419482528E0
5.917909998E-1,6.229146423E0,4.472399597E0,-5.057682495E0,9.186118633E0
6.018069996E-1,5.909561005E0,4.590354309E0,-6.019582214E0,9.603626085E0
6.118239998E-1,6.022575989E0,4.924609222E0,-7.026987305E0,1.048340346E1
6.218406665E-1,6.248156891E0,5.199288025E0,-6.441704407E0,1.037148090E1
6.318576667E-1,6.231840820E0,5.361700287E0,-5.434149628E0,9.854625927E0
6.418736666E-1,6.406078491E0,5.477110291E0,-4.893623657E0,9.745980262E0
6.518906667E-1,6.714437256E0,5.435197449E0,-4.400998077E0,9.695041158E0
6.619076664E-1,6.700665894E0,5.139113159E0,-4.466711426E0,9.553058068E0
6.719246665E-1,6.501430206E0,4.745132446E0,-4.068539429E0,9.018752117E0
6.819406664E-1,6.381230164E0,4.486470337E0,-3.556005249E0,8.572845958E0
6.919576665E-1,6.278244324E0,4.435725861E0,-4.158053284E0,8.739646607E0
7.019746667E-1,6.114784241E0,4.515659637E0,-4.482728119E0,8.824773066E0
7.119916664E-1,5.639821930E0,4.955295410E0,-5.539380798E0,9.329913378E0
7.220076662E-1,5.668861542E0,5.417384491E0,-6.181994476E0,9.985043896E0
7.320246664E-1,5.994883575E0,5.776338043E0,-6.474336548E0,1.054617201E1
7.420416665E-1,6.495592346E0,6.079008636E0,-7.528594208E0,1.165447539E1
7.520586667E-1,7.009174347E0,6.203849030E0,-8.030799866E0,1.233328887E1
7.620746666E-1,7.222031708E0,6.028862915E0,-7.331753540E0,1.192726037E1
7.720916662E-1,7.307204590E0,5.400469666E0,-6.265520782E0,1.103707671E1
7.821086664E-1,6.821015625E0,4.713548126E0,-5.586083679E0,9.997405712E0
7.921256665E-1,6.044280853E0,4.192481689E0,-5.096451874E0,8.948969519E0
8.021416664E-1,5.354814606E0,3.935466156E0,-4.674778748E0,8.124991672E0
8.121586666E-1,5.063370667E0,3.941753082E0,-4.884492645E0,8.064329375E0
8.221756667E-1,5.277575226E0,4.207600250E0,-5.885311432E0,8.955087424E0
8.321926664E-1,5.883215790E0,4.631668396E0,-6.563700714E0,9.957245966E0
8.422086663E-1,6.276298370E0,5.061125336E0,-6.589746552E0,1.041305289E1
8.522256664E-1,6.424490204E0,5.325924683E0,-6.699318695E0,1.070142136E1
8.622426665E-1,6.546187134E0,5.402116241E0,-6.953939209E0,1.097236057E1
8.722596667E-1,6.694378967E0,5.395979004E0,-6.146667938E0,1.056942884E1
8.822756666E-1,6.799759827E0,5.346432037E0,-5.623655548E0,1.031729475E1
8.922926662E-1,6.761888580E0,5.281766510E0,-5.615871735E0,1.025466772E1
9.023096664E-1,6.539451141E0,5.280718689E0,-5.346731415E0,9.961824528E0
9.123266665E-1,6.489904175E0,5.442831573E0,-5.807772675E0,1.027002898E1
9.223426664E-1,6.868017883E0,5.717660065E0,-6.150110779E0,1.084827953E1
9.323596666E-1,7.403304749E0,5.979765015E0,-6.848857727E0,1.172490354E1
9.423766662E-1,7.381749573E0,5.935457153E0,-6.503076782E0,1.148955552E1
9.523936664E-1,6.885232086E0,5.441334686E0,-4.931494904E0,1.006648827E1
9.624096663E-1,6.065686340E0,4.869074707E0,-3.905229034E0,8.703519581E0
9.724266664E-1,5.643713837E0,4.507426758E0,-4.555776215E0,8.539525676E0
9.824436666E-1,5.822891235E0,4.394561462E0,-5.535488892E0,9.157503484E0
9.924606667E-1,5.964646454E0,4.463418274E0,-5.919889526E0,9.515471718E0
1.002476667E0,5.745502167E0,4.535568237E0,-5.531297607E0,9.174825753E0
1.012493666E0,5.426814880E0,4.702471161E0,-5.204227753E0,8.868344900E0
1.022510666E0,5.421276398E0,4.957690430E0,-5.482948151E0,9.166878018E0
1.032527667E0,5.656437378E0,5.083129578E0,-5.642067261E0,9.469235085E0
1.042543666E0,5.815107422E0,5.054838409E0,-5.185516663E0,9.287434992E0
1.052560667E0,5.982010345E0,4.969216461E0,-4.986280975E0,9.237995344E0
1.062577666E0,6.131998444E0,4.913981323E0,-5.196294250E0,9.420726686E0
1.072594666E0,6.596332855E0,4.880001984E0,-4.930896149E0,9.572865993E0
1.082610666E0,7.076833649E0,4.905748444E0,-4.664300537E0,9.793040477E0
1.092627666E0,7.063361664E0,4.874014435E0,-4.564158783E0,9.720012351E0
1.102644667E0,6.724915466E0,4.855902100E0,-4.780009918E0,9.573545218E0
1.112661666E0,6.693780212E0,4.969216461E0,-5.257516937E0,9.856028111E0
1.122677667E0,6.776408386E0,5.078189850E0,-5.428311768E0,1.005854321E1
1.132694666E0,6.555767212E0,5.174140320E0,-5.749543762E0,1.013938190E1
1.142711666E0,6.043083344E0,5.263055420E0,-5.628445587E0,9.792752850E0
1.152728667E0,5.693410492E0,5.341941376E0,-5.227429504E0,9.395598965E0
1.162744666E0,5.654192047E0,5.430257721E0,-4.641547852E0,9.110518815E0
1.172761667E0,5.707780609E0,5.373376007E0,-4.642895050E0,9.110894777E0
1.182778666E0,5.660478973E0,5.074597321E0,-5.383105774E0,9.315062423E0
1.192795666E0,5.342989197E0,4.803660736E0,-5.874533844E0,9.280777872E0
1.202811666E0,5.234315186E0,4.858596497E0,-6.123615875E0,9.407586660E0
1.212828666E0,5.636229401E0,5.229375458E0,-6.634204102E0,1.015510284E1
1.222845667E0,6.404880981E0,5.470823364E0,-7.063810730E0,1.099317200E1
1.232862666E0,6.868317261E0,5.426964569E0,-6.693780212E0,1.101963792E1
1.242878667E0,6.536607056E0,5.219496002E0,-6.600823517E0,1.065557326E1
1.252895666E0,6.065386963E0,4.969066772E0,-6.143973541E0,9.961373122E0
1.262912666E0,6.226152649E0,4.777764587E0,-5.287754059E0,9.463210568E0
1.272929667E0,6.553821259E0,4.691094818E0,-4.969815216E0,9.468791209E0
1.282945666E0,6.725813599E0,4.755610657E0,-5.032834167E0,9.653073140E0
1.292962667E0,6.883585510E0,4.921316071E0,-5.376070404E0,1.002522989E1
1.302979666E0,6.927444305E0,5.045258331E0,-5.781876526E0,1.033799847E1
1.312996666E0,6.569239197E0,5.011129303E0,-5.716612244E0,1.004718747E1
1.323012666E0,5.676345978E0,4.901557159E0,-5.892795868E0,9.537882857E0
1.333029666E0,5.011877747E0,4.881049805E0,-6.501879272E0,9.550811474E0
1.343046667E0,5.111271057E0,4.987628174E0,-6.950496368E0,9.965486761E0
1.353063666E0,5.600753174E0,5.134772186E0,-7.353907471E0,1.057422700E1
1.363079667E0,6.083050232E0,5.221591644E0,-7.314838715E0,1.085243682E1
1.373096666E0,6.338868256E0,5.274282074E0,-6.881789246E0,1.074049931E1
1.383113666E0,6.450536041E0,5.371579742E0,-6.681206360E0,1.072855081E1
1.393130667E0,6.237678680E0,5.363646240E0,-6.404132538E0,1.042546161E1
1.403146666E0,5.342689819E0,5.137466583E0,-6.113586731E0,9.608009165E0
1.413163667E0,4.516108704E0,4.856949921E0,-5.854475555E0,8.846472991E0
1.423180666E0,4.463867340E0,4.677323456E0,-5.707930298E0,8.624612143E0
1.433197666E0,4.897066498E0,4.730313263E0,-5.623056793E0,8.830395889E0
1.443213666E0,5.517675934E0,4.742737427E0,-5.407654724E0,9.065375647E0
1.453230666E0,6.139632568E0,4.702770538E0,-5.608536987E0,9.553367257E0
1.463247667E0,6.411467285E0,4.894372101E0,-6.373446350E0,1.028020473E1
1.473264666E0,6.585704956E0,5.183870087E0,-6.510710907E0,1.061288723E1
1.483280667E0,6.436165924E0,5.354664917E0,-6.105802917E0,1.036231139E1
1.493297666E0,6.117927704E0,5.400170288E0,-5.772595825E0,9.995686124E0
1.503314666E0,6.016139374E0,5.438340912E0,-5.997428284E0,1.008655694E1
1.513331667E0,5.886059875E0,5.540578308E0,-6.485563202E0,1.036369813E1
1.523347666E0,6.025719452E0,5.642815704E0,-6.639443207E0,1.059400161E1
1.533364667E0,6.399492188E0,5.587580566E0,-6.527625732E0,1.071375072E1
1.543381666E0,6.638395386E0,5.367238770E0,-6.392307129E0,1.066476140E1
1.553398666E0,6.897207184E0,5.172793121E0,-6.519093475E0,1.080869258E1
1.563414666E0,7.086413727E0,5.138664093E0,-6.643335114E0,1.098895034E1
1.573431666E0,6.719077606E0,5.073399811E0,-6.256389771E0,1.048941383E1
1.583448667E0,5.645659790E0,4.849615173E0,-5.299429779E0,9.136530949E0
1.593465666E0,4.464017029E0,4.564158783E0,-4.556075592E0,7.843265789E0
1.603481667E0,3.878734131E0,4.358187103E0,-4.515959015E0,7.377822112E0
1.613498666E0,4.180805969E0,4.370012512E0,-5.157225494E0,7.948152157E0
1.623515875E0,5.240302734E0,4.688400421E0,-6.211333466E0,9.382032545E0
1.633532875E0,6.474935303E0,5.177732849E0,-7.043453064E0,1.087859990E1
1.643548875E0,7.019353180E0,5.613626404E0,-7.252119141E0,1.154891131E1
1.653565875E0,6.667734375E0,5.789211273E0,-6.779102783E0,1.113237995E1
1.663582875E0,6.107150116E0,5.740412750E0,-5.756878510E0,1.016814984E1
1.673599875E0,5.775290222E0,5.457950134E0,-4.823868713E0,9.295854247E0
1.683615875E0,5.623505859E0,5.020410004E0,-4.052373047E0,8.558625010E0
1.693632875E0,5.553750916E0,4.635410614E0,-3.732787628E0,8.140324580E0
1.703649875E0,5.687422943E0,4.409230957E0,-4.276756439E0,8.371304737E0
1.713666875E0,5.931864624E0,4.421655121E0,-5.104984131E0,8.988821664E0
1.723682875E0,6.065386963E0,4.604574738E0,-5.627248077E0,9.468735314E0
1.733699875E0,6.082451477E0,4.907694397E0,-6.098168793E0,9.913089472E0
1.743716875E0,6.182144165E0,5.228926392E0,-6.619983673E0,1.045871701E1
1.753733875E0,6.368806000E0,5.440735931E0,-6.889573059E0,1.084571410E1
1.763749875E0,6.182892609E0,5.438340912E0,-6.541397095E0,1.051634865E1
1.773766875E0,5.681136017E0,5.404062195E0,-5.938450928E0,9.835872817E0
1.783783875E0,5.041516113E0,5.383105774E0,-5.052293701E0,8.939820140E0
1.793800875E0,4.807103577E0,5.297932892E0,-4.484674072E0,8.443259990E0
1.803816875E0,5.208119659E0,5.173541565E0,-4.671934662E0,8.701552516E0
1.813833875E0,5.808371429E0,5.049898682E0,-5.531596985E0,9.478249868E0
1.823850875E0,6.217021637E0,5.046306152E0,-6.023474121E0,1.001992037E1
1.833867875E0,6.173462219E0,5.150938568E0,-6.409371643E0,1.028221031E1
1.843883875E0,6.001769257E0,5.234614563E0,-6.446943512E0,1.024624343E1
1.853900875E0,5.869743805E0,5.360353088E0,-6.706054688E0,1.039992534E1
1.863917875E0,5.743256836E0,5.375321960E0,-6.472240906E0,1.018670642E1
1.873934875E0,5.516927490E0,5.367837524E0,-5.309608612E0,9.351048724E0
1.883950875E0,5.192552032E0,5.458698578E0,-4.867278442E0,8.969413928E0
1.893967875E0,5.216951294E0,5.536237335E0,-5.060975647E0,9.136737883E0
1.903984875E0,5.990991669E0,5.523064728E0,-5.850583649E0,1.003122895E1
1.914001875E0,7.118596802E0,5.386249237E0,-6.804699554E0,1.122452838E1
1.924017875E0,7.632478180E0,5.126539307E0,-6.837032318E0,1.145779819E1
1.934034875E0,7.147037659E0,4.819976807E0,-6.363117828E0,1.071455049E1
1.944051875E0,6.313720551E0,4.611759796E0,-5.697302399E0,9.674226079E0
1.954068875E0,5.970334625E0,4.548441467E0,-5.370082855E0,9.228813856E0
1.964084875E0,6.052214355E0,4.696333923E0,-5.849984894E0,9.638836765E0
1.974101875E0,6.082451477E0,4.979395294E0,-6.408473511E0,1.014194884E1
1.984118875E0,5.801934814E0,5.202431488E0,-6.562952271E0,1.018823260E1
1.994135875E0,5.307512970E0,5.314698029E0,-6.562802582E0,9.974271241E0
2.004151875E0,4.975952454E0,5.297633514E0,-6.518644409E0,9.763080897E0
2.014168875E0,4.830005951E0,5.144801331E0,-6.455176392E0,9.563850713E0
2.024185875E0,4.773722992E0,4.983885956E0,-6.519093475E0,9.493478296E0
2.034202875E0,4.883295135E0,4.858147430E0,-6.535110168E0,9.495042535E0
2.044218875E0,5.147495728E0,4.822072449E0,-6.380781097E0,9.511228227E0
2.054235875E0,5.304519196E0,4.900060272E0,-6.402485962E0,9.650924363E0
2.064252875E0,5.197342072E0,5.022355957E0,-6.508615265E0,9.726175848E0
2.074268875E0,5.070855103E0,5.233566742E0,-6.584058380E0,9.821080239E0
2.084285875E0,5.306764526E0,5.489983521E0,-6.846762085E0,1.025572132E1
2.094302875E0,5.861061859E0,5.682034149E0,-6.860832825E0,1.066342277E1
2.104319875E0,6.316714325E0,5.736820221E0,-6.533313904E0,1.074691475E1
2.114335875E0,6.431375885E0,5.513784027E0,-5.732628937E0,1.022875577E1
2.124352875E0,6.353388062E0,5.216202850E0,-5.174589386E0,9.713428198E0
2.134369875E0,6.521787872E0,5.167703705E0,-5.940247192E0,1.022376718E1
2.144386875E0,6.880891113E0,5.083728333E0,-5.620512085E0,1.023626457E1
2.154402875E0,6.807843018E0,5.056784363E0,-4.563110962E0,9.630149339E0
2.164419875E0,6.543492737E0,5.229225769E0,-4.461472321E0,9.490354820E0
2.174436875E0,6.597081299E0,5.321134644E0,-5.152884521E0,9.919081331E0
2.184453875E0,6.590345306E0,5.423372040E0,-6.309978333E0,1.061420944E1
2.194469875E0,6.553072815E0,5.612578583E0,-7.310048676E0,1.130843107E1
2.204486875E0,6.615792389E0,5.818699951E0,-7.882907410E0,1.182227589E1
2.214503875E0,6.806495819E0,5.892646179E0,-7.829618225E0,1.193124410E1
2.224520875E0,6.604715424E0,5.848787384E0,-7.387737122E0,1.150692137E1
2.234536875E0,5.841452637E0,5.660928040E0,-6.861730957E0,1.064199356E1
2.244553875E0,4.997956696E0,5.372477875E0,-6.068231049E0,9.521896749E0
2.254570875E0,4.346960449E0,5.066214752E0,-5.225333862E0,8.477423608E0
2.264587875E0,4.017046509E0,4.786147156E0,-4.549189911E0,7.729100601E0
2.274603875E0,4.073030090E0,4.557123413E0,-4.444108429E0,7.556920513E0
2.284620875E0,4.520749054E0,4.439917145E0,-5.200186157E0,8.197070960E0
2.294637875E0,5.463488617E0,4.493206329E0,-6.156846771E0,9.377919447E0
2.304654875E0,6.486161957E0,4.834646301E0,-6.962770844E0,1.067353173E1
2.314670875E0,6.984625397E0,5.114863586E0,-7.050638123E0,1.116504901E1
2.324687875E0,6.909481659E0,5.254972229E0,-6.072272644E0,1.059377954E1
2.334704875E0,6.712640991E0,5.323230286E0,-5.217400360E0,1.003083228E1
2.344721875E0,6.769672394E0,5.320984955E0,-5.082680511E0,9.998749241E0
2.354737875E0,6.902745667E0,5.240153046E0,-5.066364441E0,1.003868270E1
2.364754875E0,6.674470367E0,5.124892731E0,-4.892426147E0,9.733905372E0
2.374771875E0,6.163283386E0,4.972060547E0,-4.681365051E0,9.199055763E0
2.384788875E0,5.739963684E0,4.788691864E0,-4.704117737E0,8.832184132E0
2.394804875E0,5.645360413E0,4.723277893E0,-5.125341797E0,8.969313061E0
2.404821875E0,5.726042633E0,4.780009918E0,-5.785469055E0,9.439688090E0
2.414838875E0,5.594765625E0,4.895719299E0,-6.201004944E0,9.681008841E0
2.424855875E0,5.194797363E0,5.086273041E0,-5.897286530E0,9.361307681E0
2.434871875E0,4.737648010E0,5.145400085E0,-5.236111450E0,8.737122743E0
2.444888875E0,4.488266602E0,5.171445923E0,-4.996759186E0,8.476791397E0
2.454905875E0,4.521647186E0,5.155578918E0,-5.108876038E0,8.551368407E0
2.464922875E0,4.862638092E0,5.132826233E0,-5.445675659E0,8.924490895E0
2.474938875E0,5.147046661E0,5.167554016E0,-5.993686066E0,9.440337732E0
2.484955875E0,5.173092499E0,5.142106934E0,-6.327791290E0,9.656246286E0
2.494972875E0,4.958738251E0,5.020110626E0,-5.837411041E0,9.157836175E0
2.504989875E0,4.622986450E0,4.912783813E0,-4.914131012E0,8.346024929E0
2.515005875E0,4.044140167E0,4.914280701E0,-4.290378113E0,7.675452355E0
2.525022875E0,3.594924316E0,5.127736816E0,-5.452411652E0,8.303370311E0
2.535039875E0,3.713178406E0,5.521867218E0,-7.033423920E0,9.682342871E0
2.545056875E0,4.771627350E0,6.004463654E0,-8.513995056E0,1.145906293E1
2.555072875E0,6.781946869E0,6.267017670E0,-9.461225281E0,1.322063151E1
2.565089875E0,8.790619812E0,6.154302063E0,-9.016949158E0,1.401626921E1
2.575106875E0,9.418713684E0,5.558241577E0,-7.298372955E0,1.314809738E1
2.585123875E0,8.081244965E0,4.877756653E0,-5.830375671E0,1.109469741E1
2.595139875E0,5.537883911E0,4.450994110E0,-4.586462402E0,8.456662708E0
2.605156875E0,4.038901062E0,4.271217957E0,-4.214485931E0,7.233112490E0
2.615173875E0,4.105662231E0,4.507277069E0,-6.025869141E0,8.572228872E0
2.625191500E0,5.059478760E0,4.796625366E0,-7.662565613E0,1.035957779E1
2.635207500E0,5.898334351E0,5.054389343E0,-8.519683228E0,1.152918913E1
2.645224500E0,6.285130005E0,5.219795380E0,-8.798403625E0,1.200670768E1
2.655241500E0,6.021977234E0,5.235812073E0,-8.456215210E0,1.162693053E1
2.665258500E0,5.306914215E0,5.172643433E0,-7.897127838E0,1.082978332E1
2.675274500E0,4.761747894E0,5.128335571E0,-7.519014130E0,1.027178866E1
2.685291500E0,4.594994659E0,5.079986115E0,-7.298822021E0,1.000964723E1
2.695308500E0,4.453538818E0,4.965474243E0,-7.000193024E0,9.669159469E0
2.705325500E0,4.129612427E0,4.750820618E0,-6.560108185E0,9.091700321E0
2.715341500E0,3.764671326E0,4.537514191E0,-6.135590973E0,8.509245666E0
2.725358500E0,3.712130585E0,4.491859131E0,-6.375691681E0,8.637485533E0
2.735375500E0,4.254153442E0,4.606071625E0,-7.156018982E0,9.514322098E0
2.745392500E0,4.994663544E0,4.835245056E0,-7.923173676E0,1.054053793E1
2.755408500E0,5.438041534E0,5.010231171E0,-8.254883881E0,1.108232015E1
2.765425500E0,5.606441345E0,5.056185608E0,-7.853718109E0,1.089394720E1
2.775442500E0,5.698050842E0,4.992717590E0,-6.909182281E0,1.025338052E1
2.785458500E0,5.648952942E0,4.932393036E0,-5.880371704E0,9.529844793E0
2.795475500E0,5.333259430E0,4.949607239E0,-4.835544434E0,8.736404176E0
2.805492500E0,4.781806183E0,5.010081482E0,-4.167483673E0,8.082976370E0
2.815509500E0,4.445305939E0,4.879403229E0,-3.842359772E0,7.637607569E0
2.825525500E0,4.682113495E0,4.506528625E0,-3.919150085E0,7.588855278E0
2.835542500E0,5.608836365E0,4.337080994E0,-5.777236176E0,9.145806402E0
2.845559500E0,7.129374390E0,4.495301971E0,-7.314838715E0,1.115986489E1
2.855576500E0,8.375982056E0,4.827311554E0,-7.873776398E0,1.246821427E1
2.865592500E0,8.362210693E0,5.170847168E0,-7.525151367E0,1.238111995E1
2.875609500E0,7.545658722E0,5.387446747E0,-6.305936737E0,1.121277781E1
2.885626500E0,6.533613281E0,5.465135193E0,-4.987777863E0,9.870852708E0
2.895643500E0,5.701194305E0,5.293591919E0,-3.958218842E0,8.728873255E0
2.905659500E0,4.931045837E0,4.891228638E0,-4.152814178E0,8.092292397E0
2.915676500E0,4.419260101E0,4.447850647E0,-5.022206268E0,8.033417145E0
2.925693500E0,4.485123138E0,4.173920288E0,-5.862558746E0,8.479831083E0
2.935710500E0,5.083578644E0,4.075275421E0,-6.273903351E0,9.045026525E0
2.945726500E0,5.579647064E0,4.107757874E0,-6.433920593E0,9.455235074E0
2.955743500E0,5.880072327E0,4.283193054E0,-6.471193085E0,9.736392209E0
2.965760500E0,6.212231598E0,4.672683105E0,-6.345604248E0,1.003456437E1
2.975777500E0,6.389463043E0,5.185067596E0,-6.201454010E0,1.030379521E1
2.985793500E0,6.239325256E0,5.537285156E0,-6.115532684E0,1.034361864E1
2.995810500E0,6.155948639E0,5.730832672E0,-5.842201080E0,1.024057910E1
3.005827500E0,6.445895691E0,5.717360687E0,-5.313051453E0,1.012256392E1
3.015844500E0,6.934779053E0,5.455704803E0,-5.044809265E0,1.016395474E1
3.025860500E0,7.333699493E0,5.139412537E0,-4.789290619E0,1.015549182E1
3.035877500E0,7.461383972E0,4.866829376E0,-4.433779907E0,9.950712699E0
3.045894500E0,7.386389923E0,4.745731201E0,-4.473746796E0,9.853686169E0
3.055911500E0,7.453600159E0,4.822222137E0,-4.880151672E0,1.013044234E1
3.065927500E0,7.462581482E0,4.912334747E0,-5.207969971E0,1.034137835E1
3.075944500E0,7.187004547E0,4.866979065E0,-5.502407684E0,1.027701367E1
3.085961500E0,6.816974030E0,4.794978790E0,-5.623655548E0,1.005427562E1
3.095978500E0,6.432872772E0,4.764891357E0,-5.903723145E0,9.946858234E0
3.105994500E0,6.188431091E0,4.811893616E0,-5.833818512E0,9.771613888E0
3.116011500E0,6.193221130E0,4.918172607E0,-5.729485474E0,9.765828872E0
3.126028500E0,6.268963623E0,4.969815216E0,-5.559139709E0,9.741817207E0
3.136045500E0,6.253845062E0,4.963079224E0,-5.206173706E0,9.531368113E0
3.146061500E0,6.212231598E0,4.932393036E0,-5.165308685E0,9.465766546E0
3.156078500E0,6.319708099E0,5.002297668E0,-6.096372528E0,1.010581270E1
3.166095500E0,6.593039703E0,5.046455841E0,-7.053781586E0,1.089452724E1
3.176112500E0,6.665189667E0,5.055137787E0,-7.452552338E0,1.120355781E1
3.186128500E0,6.437812500E0,4.934488678E0,-7.069349213E0,1.075966108E1
3.196145500E0,5.745651855E0,4.722080383E0,-5.722899170E0,9.384142651E0
3.206162500E0,4.765190735E0,4.632117462E0,-5.130580902E0,8.395618817E0
3.216179500E0,4.045637054E0,4.540807343E0,-5.432652740E0,8.154742565E0
3.226195500E0,3.899690552E0,4.455185394E0,-5.823190613E0,8.304565745E0
3.236212500E0,4.440964966E0,4.570745087E0,-7.060218201E0,9.511075729E0
3.246229500E0,5.401667175E0,4.902604980E0,-8.362360382E0,1.109696423E1
3.256245500E0,6.299649811E0,5.237308960E0,-8.824000397E0,1.204068004E1
3.266262500E0,6.866371307E0,5.285209351E0,-8.405171356E0,1.207176037E1
3.276279500E0,6.693630524E0,5.186115417E0,-7.445666656E0,1.127556804E1
3.286296500E0,5.805227966E0,4.968168640E0,-7.120842133E0,1.044460454E1
3.296312500E0,4.828209686E0,4.797074432E0,-6.577322388E0,9.464919528E0
3.306329500E0,4.480931854E0,4.781955872E0,-5.652545471E0,8.654312367E0
3.316346500E0,5.040168915E0,4.876708832E0,-5.538332977E0,8.936370845E0
3.326363500E0,5.637875977E0,4.944966888E0,-5.815855865E0,9.490127634E0
3.336379500E0,5.454806671E0,4.916526031E0,-6.268963623E0,9.655415524E0
3.346396500E0,4.755460968E0,4.803361359E0,-6.548282776E0,9.410988082E0
3.356413500E0,4.384083252E0,4.664001160E0,-6.757846985E0,9.308146359E0
3.366430500E0,4.653822327E0,4.478686523E0,-7.121291199E0,9.614025357E0
3.376446500E0,5.210364990E0,4.312831421E0,-7.527396698E0,1.011978850E1
3.386463500E0,5.335654449E0,4.254602509E0,-7.725434875E0,1.030791904E1
3.396480500E0,4.900659027E0,4.356989594E0,-7.328759766E0,9.834151561E0
3.406497500E0,4.550387421E0,4.571942596E0,-6.898704071E0,9.444617655E0
3.416513500E0,4.762646027E0,4.727319489E0,-6.715185699E0,9.493369565E0
3.426530500E0,5.360652466E0,4.750371552E0,-6.836732941E0,9.901693897E0
3.436547500E0,5.593268738E0,4.641847229E0,-6.819069672E0,9.966499489E0
3.446564500E0,5.276826782E0,4.512516174E0,-6.578370209E0,9.564656696E0
3.456580500E0,4.877756653E0,4.359983368E0,-6.383924561E0,9.140922149E0
3.466597500E0,4.748575287E0,4.269571381E0,-6.435716858E0,9.066237285E0
3.476614500E0,4.902604980E0,4.288581848E0,-6.786886597E0,9.406875121E0
3.486631500E0,5.264552307E0,4.404440918E0,-7.237749023E0,9.974949710E0
3.496647500E0,5.724396057E0,4.604574738E0,-7.427853699E0,1.044719241E1
3.506664500E0,6.015540619E0,4.871918793E0,-7.158414001E0,1.054349148E1
3.516681500E0,6.006708984E0,5.152435455E0,-6.778653717E0,1.042009070E1
3.526698500E0,5.896987152E0,5.074297943E0,-5.760920105E0,9.680452342E0
3.536714500E0,5.605094147E0,4.817731476E0,-5.264103241E0,9.074050909E0
3.546731500E0,5.522016907E0,4.751718750E0,-6.442901917E0,9.725352791E0
3.556748500E0,6.333180084E0,4.844076691E0,-7.245981903E0,1.077397339E1
3.566765500E0,7.409741364E0,5.098397827E0,-7.649393005E0,1.180724950E1
3.576781500E0,7.884404297E0,5.439239044E0,-8.043373718E0,1.250779810E1
3.586798500E0,7.717800751E0,5.754633179E0,-8.098309479E0,1.258025707E1
3.596815500E0,7.153623962E0,5.960604858E0,-7.111860809E0,1.171672780E1
3.606831500E0,6.298302612E0,5.930218048E0,-5.182971954E0,1.008460709E1
3.616848500E0,5.081333313E0,5.565576324E0,-3.448229370E0,8.287694121E0
3.626864917E0,3.901187439E0,4.998256073E0,-3.423830109E0,7.205861490E0
3.636881916E0,3.372636566E0,4.406087494E0,-4.945715332E0,7.432925706E0
3.646897917E0,4.157454529E0,3.989952850E0,-5.895041199E0,8.243522466E0
3.656914916E0,5.829178162E0,3.898642731E0,-6.065087585E0,9.271678413E0
3.666931916E0,6.950945435E0,4.075425110E0,-6.775510254E0,1.052769070E1
3.676948917E0,7.120692444E0,4.272864532E0,-7.141648865E0,1.095284350E1
3.686964917E0,6.520740051E0,4.568499756E0,-6.160738678E0,1.006707216E1
3.696981917E0,5.823190613E0,4.972060547E0,-5.143454132E0,9.224210286E0
3.706998916E0,5.773344269E0,5.269042969E0,-4.583768005E0,9.061194567E0
3.717015916E0,6.179749146E0,5.322481842E0,-4.198469238E0,9.173072354E0
3.727031916E0,6.636898499E0,5.131029968E0,-4.392615509E0,9.469475235E0
3.737048917E0,7.006479950E0,4.819228363E0,-4.899461517E0,9.814298063E0
3.747065917E0,7.119195557E0,4.557273102E0,-5.234614563E0,9.942478218E0
3.757082916E0,6.826853485E0,4.442611542E0,-5.423372040E0,9.785483642E0
3.767098917E0,6.515800323E0,4.540807343E0,-5.526806946E0,9.675752177E0
3.777115916E0,6.357429657E0,4.699776764E0,-5.340893555E0,9.540962081E0
3.787132917E0,6.424490204E0,4.801265717E0,-5.349126434E0,9.640507272E0
3.797149917E0,6.403683472E0,4.753515015E0,-5.231770477E0,9.538054798E0
3.807165917E0,6.457421722E0,4.698429565E0,-4.741839294E0,9.287549493E0
3.817182917E0,6.721921692E0,4.774471436E0,-4.738845520E0,9.509808914E0
3.827199916E0,6.810088348E0,4.830455017E0,-5.182223511E0,9.826802099E0
3.837216916E0,6.478677521E0,4.802762604E0,-5.327870636E0,9.665712419E0
3.847232916E0,5.940097504E0,4.744533691E0,-5.533393250E0,9.402861222E0
3.857249917E0,5.582191772E0,4.803810425E0,-5.501958618E0,9.192878125E0
3.867266917E0,5.400619354E0,4.965025177E0,-5.634882202E0,9.250408740E0
3.877283916E0,5.397475891E0,5.144951019E0,-5.955665131E0,9.543228706E0
3.887299916E0,5.562283173E0,5.265600128E0,-6.156098328E0,9.826651791E0
3.897316916E0,5.624403992E0,5.273683319E0,-5.946683807E0,9.736976138E0
3.907333917E0,5.457950134E0,5.206173706E0,-5.828729095E0,9.532447073E0
3.917350917E0,5.273982697E0,5.077591095E0,-6.015690308E0,9.475513426E0
3.927366917E0,5.391039276E0,4.919220428E0,-5.853128357E0,9.355273682E0
3.937383917E0,5.646108856E0,4.795128479E0,-6.106701050E0,9.600187501E0
3.947400916E0,5.506299591E0,4.968767395E0,-6.616241455E0,9.938945397E0
3.957417917E0,5.270988922E0,5.357509003E0,-7.802225189E0,1.083332566E1
3.967433916E0,5.774841156E0,5.408253479E0,-8.441096649E0,1.156936077E1
3.977450917E0,6.579418030E0,5.197192383E0,-7.882907410E0,1.150824832E1
3.987467917E0,7.003935242E0,4.921166382E0,-8.013136597E0,1.172532923E1
3.997483917E0,6.930887146E0,4.607418823E0,-7.691305847E0,1.133232944E1
4.007500916E0,6.540798340E0,4.438120880E0,-6.662495270E0,1.033768848E1
4.017517916E0,6.194718018E0,4.361929321E0,-5.829477539E0,9.559485713E0
4.027534917E0,6.158942413E0,4.445904694E0,-5.711522827E0,9.503690504E0
4.037550916E0,5.894891510E0,4.603975983E0,-6.147117004E0,9.681600499E0
4.047567917E0,5.084177399E0,4.632117462E0,-6.326893158E0,9.345316958E0
4.057584916E0,4.217030640E0,4.569397888E0,-6.258186035E0,8.821997332E0
4.067601916E0,4.051624603E0,4.479135590E0,-6.498735809E0,8.871971859E0
4.077617916E0,4.509073334E0,4.410428467E0,-7.373965759E0,9.703555668E0
4.087634916E0,4.982239380E0,4.424050140E0,-8.144712982E0,1.052289306E1
4.097651917E0,4.973856812E0,4.438869324E0,-8.231233063E0,1.059226181E1
4.107668916E0,4.620890808E0,4.472100220E0,-7.848329315E0,1.014635823E1
4.117684917E0,4.302502899E0,4.525090027E0,-7.444768524E0,9.716612029E0
4.127701916E0,4.357738037E0,4.638105011E0,-7.180567932E0,9.594918172E0
4.137718916E0,4.808151398E0,4.698878632E0,-6.930887146E0,9.655826059E0
4.147735917E0,5.455106049E0,4.690196686E0,-6.818620605E0,9.912099370E0
4.157751916E0,5.899232483E0,4.626878357E0,-6.715485077E0,1.006512231E1
4.167768917E0,5.992488556E0,4.535717926E0,-6.418652344E0,9.883408021E0
4.177785916E0,5.870791626E0,4.557422791E0,-6.481371918E0,9.861261519E0
4.187802916E0,5.675597534E0,4.572840729E0,-6.635700989E0,9.856764546E0
4.197818916E0,5.402415619E0,4.591851196E0,-6.396797791E0,9.549356727E0
4.207835916E0,5.237758026E0,4.770280151E0,-6.367009735E0,9.525150646E0
4.217852917E0,5.306016083E0,4.956792297E0,-6.844067688E0,9.978219233E0
4.227869916E0,5.624853058E0,4.865781555E0,-6.794071655E0,1.007344091E1
4.237885917E0,5.886059875E0,4.689298553E0,-6.924001465E0,1.022629053E1
4.247902916E0,6.089486847E0,4.645589447E0,-7.181615753E0,1.049947409E1
4.257919916E0,6.468648376E0,4.648283844E0,-6.561754761E0,1.032020252E1
4.267935916E0,7.172484741E0,4.633913727E0,-5.826483765E0,1.033758225E1
4.277952916E0,7.773335266E0,4.749174042E0,-5.782624969E0,1.078972413E1
4.287969917E0,7.903414764E0,4.849914551E0,-6.249953156E0,1.118246621E1
4.297986916E0,7.438481598E0,4.914729767E0,-6.635102234E0,1.111351244E1
4.308002917E0,6.218368835E0,4.963228912E0,-5.953419800E0,9.937049840E0
4.318019916E0,4.815785522E0,4.939578094E0,-4.771028595E0,8.387725306E0
4.328036916E0,4.008514252E0,4.954846344E0,-5.067711639E0,8.142505146E0
4.338053917E0,4.198469238E0,4.999004517E0,-6.198460236E0,9.002116384E0
4.348069916E0,4.982538757E0,4.995861053E0,-6.956184540E0,9.908219996E0
4.358086917E0,5.698948975E0,4.982239380E0,-7.329957275E0,1.053703005E1
4.368103916E0,6.047723694E0,4.984784088E0,-7.828720093E0,1.107754001E1
4.378120916E0,6.047574005E0,5.027894440E0,-7.921227722E0,1.116237979E1
4.388136916E0,5.786816254E0,5.012326813E0,-7.107220459E0,1.044620721E1
4.398153916E0,5.559139709E0,4.999902649E0,-6.148314514E0,9.680125628E0
4.408170917E0,5.581443329E0,4.984335022E0,-5.444178772E0,9.253928233E0
4.418187916E0,5.550308075E0,4.837490387E0,-5.273533630E0,9.056345285E0
4.428203917E0,5.592220917E0,4.612957306E0,-5.183720398E0,8.911973241E0
4.438220916E0,5.841452637E0,4.429139557E0,-5.314248962E0,9.054340846E0
4.448237916E0,6.245612183E0,4.384682007E0,-5.728138275E0,9.541733382E0
4.458254917E0,6.557413788E0,4.469256134E0,-5.860313416E0,9.864948013E0
4.468270916E0,6.577322388E0,4.575684814E0,-5.559738464E0,9.752371666E0
4.478287917E0,6.297254791E0,4.684658203E0,-5.527555389E0,9.599755672E0
4.488304916E0,6.231840820E0,4.837191010E0,-5.426066437E0,9.574782183E0
4.498321916E0,6.367159424E0,4.905299377E0,-5.250331879E0,9.600451341E0
4.508337916E0,6.451583862E0,4.807253265E0,-5.243745575E0,9.603618378E0
4.518354916E0,6.388564911E0,4.637057190E0,-5.077890472E0,9.386215033E0
4.528371917E0,6.250102844E0,4.484674072E0,-5.197791138E0,9.284024979E0
4.538388916E0,6.054309998E0,4.343218231E0,-5.297633514E0,9.142381255E0
4.548404917E0,5.921536102E0,4.325255585E0,-4.920567627E0,8.830878295E0
4.558421916E0,5.921835480E0,4.473297729E0,-4.912484436E0,8.900057941E0
4.568438916E0,5.953120422E0,4.690945129E0,-5.238656158E0,9.213475312E0
4.578454916E0,5.761668549E0,4.885241089E0,-5.585035858E0,9.394414857E0
4.588471917E0,5.219346313E0,5.002297668E0,-5.791606293E0,9.263220895E0
4.598488917E0,4.505181427E0,5.030888214E0,-6.152805176E0,9.135836439E0
4.608505916E0,3.990850983E0,5.011728058E0,-6.567891998E0,9.175048501E0
4.618521917E0,4.039799194E0,4.919819183E0,-6.988816681E0,9.453473273E0
4.628539125E0,4.650379486E0,4.823569336E0,-6.831194458E0,9.568598028E0
4.638556125E0,5.492827606E0,4.689448242E0,-5.923182678E0,9.340565988E0
4.648573125E0,6.229595490E0,4.502487030E0,-5.097799072E0,9.223220956E0
4.658589125E0,6.592740326E0,4.553830261E0,-5.701343994E0,9.833967581E0
4.668606125E0,6.721472626E0,4.796026611E0,-7.069648590E0,1.087014244E1
4.678623125E0,6.868766327E0,4.979694672E0,-8.141120453E0,1.175819510E1
4.688640125E0,6.981481934E0,5.062771912E0,-8.054001617E0,1.179998693E1
4.698656125E0,7.160659332E0,5.065915375E0,-7.204518127E0,1.135093045E1
4.708673125E0,7.189249878E0,4.878654785E0,-6.497089233E0,1.084890570E1
4.718690125E0,6.741680603E0,4.590354309E0,-5.995781708E0,1.012279647E1
4.728707125E0,6.199358368E0,4.340074768E0,-5.949976959E0,9.626552809E0
4.738723125E0,5.852080536E0,4.497397614E0,-6.317911835E0,9.715422885E0
4.748740125E0,5.429658966E0,4.962480469E0,-6.902895355E0,1.008748597E1
4.758757125E0,4.842879181E0,5.175487518E0,-6.982380066E0,9.949511606E0
4.768774125E0,4.320764923E0,5.154980164E0,-7.089257813E0,9.772430933E0
4.778790125E0,4.369713135E0,4.905149689E0,-7.742349701E0,1.015376114E1
4.788807125E0,4.890180817E0,4.574786682E0,-8.199798431E0,1.058674813E1
4.798824125E0,5.220843201E0,4.383783875E0,-8.246501312E0,1.069951161E1
4.808841125E0,5.082381134E0,4.287234650E0,-7.908504181E0,1.033225132E1
4.818857125E0,4.636458435E0,4.335434418E0,-7.273973694E0,9.654192442E0
4.828874125E0,4.404590607E0,4.451592865E0,-6.880891113E0,9.303964744E0
4.838891125E0,4.544998627E0,4.555476837E0,-6.931036835E0,9.457729819E0
4.848907125E0,4.640200653E0,4.525539093E0,-6.895111542E0,9.463325491E0
4.858924125E0,4.460574188E0,4.395160217E0,-6.816824341E0,9.256524700E0
4.868941125E0,4.414470062E0,4.336332550E0,-7.253466339E0,9.534364155E0
4.878958125E0,4.591551819E0,4.427492981E0,-7.709418182E0,1.000600674E1
4.888974125E0,4.922812958E0,4.609664154E0,-7.798333282E0,1.031004816E1
4.898991125E0,5.492827606E0,4.834197235E0,-7.692054291E0,1.061641734E1
4.909008125E0,5.860612793E0,5.089266815E0,-7.911947021E0,1.108360612E1
4.919025125E0,5.617667999E0,5.182522888E0,-7.801925812E0,1.092184891E1
4.929041125E0,5.268144836E0,5.044060822E0,-7.428153076E0,1.041025253E1
4.939058125E0,4.936584320E0,4.859644318E0,-7.403304749E0,1.013878340E1
4.949075125E0,3.897594910E0,4.517306213E0,-6.407425690E0,8.755135948E0
4.959092125E0,2.658471680E0,4.225862274E0,-5.539829865E0,7.457553121E0
4.969108125E0,2.963686981E0,4.105213165E0,-5.834267578E0,7.724952675E0
4.979125125E0,4.679718475E0,4.039200439E0,-7.088209991E0,9.405191443E0
4.989142125E0,5.873785400E0,4.142934723E0,-8.232430573E0,1.092877743E1
4.999159125E0,5.897136841E0,4.406087494E0,-8.379873962E0,1.115401800E1
5.009175125E0,5.625900879E0,4.468956757E0,-8.144862671E0,1.086099089E1
5.019192125E0,5.538033600E0,4.474644928E0,-8.085585938E0,1.077353068E1
5.029209125E0,5.103636932E0,4.700974274E0,-7.669002228E0,1.034214022E1
5.039226125E0,4.241878967E0,4.879702606E0,-6.764882355E0,9.357813205E0
5.049242125E0,3.866459656E0,4.942422180E0,-6.551426239E0,9.071837358E0
5.059259125E0,4.533472595E0,4.779710541E0,-6.592291260E0,9.319673314E0
5.069276125E0,5.780529327E0,4.584965515E0,-7.239694977E0,1.033680857E1
5.079292125E0,6.862180023E0,4.424798584E0,-7.507338409E0,1.109182073E1
5.089309125E0,7.048093414E0,4.316723328E0,-7.046297150E0,1.086094032E1
5.099326125E0,6.234385529E0,4.318968658E0,-6.355483704E0,9.895111232E0
5.109343125E0,5.035977631E0,4.423750763E0,-5.462440796E0,8.646901234E0
5.119359125E0,4.449197845E0,4.766388245E0,-5.910758514E0,8.800618420E0
5.129376125E0,5.097200317E0,5.270988922E0,-7.604785767E0,1.056397377E1
5.139393125E0,6.201903076E0,5.596711578E0,-8.425079956E0,1.186460090E1
5.149410125E0,6.483467560E0,5.612728271E0,-7.454797668E0,1.136274960E1
5.159426125E0,5.624853058E0,5.464237061E0,-5.414839783E0,9.529813663E0
5.169443125E0,4.644242249E0,5.490881653E0,-5.031486969E0,8.776937308E0
5.179460125E0,4.875062256E0,5.519172821E0,-6.403084717E0,9.758431970E0
5.189477125E0,5.960455170E0,5.280718689E0,-6.987469482E0,1.059423171E1
5.199493125E0,6.805597687E0,5.113366699E0,-5.733377380E0,1.026324973E1
5.209510125E0,6.176905060E0,5.235213318E0,-6.428531799E0,1.033864767E1
5.219527125E0,4.670437775E0,5.273982697E0,-6.999743958E0,9.930976687E0
5.229544125E0,4.014651489E0,5.318739624E0,-6.841522980E0,9.550542102E0
5.239560125E0,4.653522949E0,5.481451263E0,-7.448959808E0,1.035319207E1
5.249577125E0,5.794300690E0,5.480253754E0,-7.449708252E0,1.091353539E1
5.259594125E0,6.850953369E0,5.311105499E0,-6.427783356E0,1.079165430E1
5.269611125E0,7.143594818E0,5.193300476E0,-5.542973328E0,1.042716980E1
5.279627125E0,6.504573669E0,5.164560242E0,-4.412673798E0,9.404990758E0
5.289644125E0,5.364244995E0,5.052892456E0,-4.284390564E0,8.524250644E0
5.299661125E0,4.704716492E0,4.740492096E0,-4.823868713E0,8.238709361E0
5.309677125E0,5.010081482E0,4.370012512E0,-5.448519745E0,8.595597316E0
5.319694125E0,5.597759399E0,4.090244293E0,-6.612349548E0,9.580614553E0
5.329711125E0,6.282285919E0,3.908522186E0,-6.700815582E0,9.982213758E0
5.339728125E0,6.740782471E0,4.124972076E0,-7.392078094E0,1.082110722E1
5.349744125E0,7.267537079E0,4.458628235E0,-6.804549866E0,1.090863694E1
5.359761125E0,7.409741364E0,4.568350067E0,-5.191504211E0,1.013537396E1
5.369778125E0,6.709048462E0,4.619543610E0,-4.891378326E0,9.501426017E0
5.379795125E0,5.914351044E0,4.665048981E0,-4.352498932E0,8.699797539E0
5.389811125E0,5.731730804E0,4.802762604E0,-3.836521912E0,8.404651511E0
5.399828125E0,6.034850464E0,5.042713623E0,-4.380790100E0,9.002205436E0
5.409845125E0,6.507866821E0,5.195994873E0,-4.746779022E0,9.585541423E0
5.419862125E0,6.796316986E0,5.151836700E0,-4.665048981E0,9.720803874E0
5.429878125E0,6.693480835E0,4.933141479E0,-4.682861938E0,9.542943282E0
5.439895125E0,6.346801758E0,4.690496063E0,-4.656367035E0,9.163209036E0
5.449912125E0,6.305936737E0,4.581372986E0,-4.314028931E0,8.908684649E0
5.459929125E0,6.676865387E0,4.666845245E0,-4.330943756E0,9.225890188E0
5.469945125E0,6.822811890E0,4.644242249E0,-4.724625092E0,9.510090978E0
5.479962125E0,6.621181183E0,4.397854614E0,-4.902604980E0,9.338988225E0
5.489979125E0,6.362519073E0,4.164190521E0,-4.809648285E0,8.997491222E0
5.499995125E0,6.195466461E0,4.131109314E0,-4.483326874E0,8.691955401E0
5.510012125E0,6.378386078E0,4.304748230E0,-4.215533752E0,8.774131929E0
5.520029125E0,6.674320679E0,4.546345825E0,-4.140689392E0,9.075303054E0
5.530046125E0,6.653813324E0,4.759652252E0,-4.335434418E0,9.258699309E0
5.540062125E0,6.603218536E0,5.038522339E0,-4.662055206E0,9.524912658E0
5.550079125E0,6.570586395E0,5.293891296E0,-5.083279266E0,9.850767419E0
5.560096125E0,6.472091217E0,5.419330444E0,-5.733527069E0,1.020443236E1
5.570113125E0,6.383774872E0,5.416186981E0,-6.138135681E0,1.038096203E1
5.580129125E0,5.941893768E0,5.369334412E0,-6.318660278E0,1.020104511E1
5.590146125E0,5.434299316E0,5.343138885E0,-5.959557037E0,9.674557473E0
5.600163125E0,5.076992340E0,5.341941376E0,-5.915249176E0,9.449992682E0
5.610180125E0,5.080734558E0,5.342540131E0,-6.381679230E0,9.751021920E0
5.620196125E0,5.531746674E0,5.270539856E0,-6.951095123E0,1.032940149E1
5.630213250E0,5.786217499E0,5.168302460E0,-6.184389496E0,9.921609582E0
5.640230250E0,5.394781494E0,5.190905457E0,-5.293142853E0,9.168780076E0
5.650247250E0,5.248984680E0,5.271138611E0,-5.737718353E0,9.394581115E0
5.660263250E0,5.677842865E0,5.261558533E0,-6.125561829E0,9.871393291E0
5.670280250E0,6.270909576E0,5.136119385E0,-6.331683197E0,1.028563276E1
5.680297250E0,6.749614105E0,5.085524597E0,-6.607709198E0,1.072761259E1
5.690313250E0,7.007976837E0,5.086123352E0,-7.356152802E0,1.136192652E1
5.700330250E0,6.803352356E0,5.096002808E0,-7.824828186E0,1.155347498E1
5.710347250E0,5.960006104E0,5.084776154E0,-7.096891937E0,1.057083234E1
5.720364250E0,4.908592529E0,5.058580627E0,-5.957910461E0,9.229312848E0
5.730380250E0,4.393363953E0,4.936734009E0,-5.509443054E0,8.603891693E0
5.740397250E0,4.737947388E0,4.810247040E0,-6.085145874E0,9.089313634E0
5.750414250E0,5.560486908E0,4.663252716E0,-6.799460449E0,9.944727394E0
5.760431250E0,6.049370270E0,4.592300262E0,-7.444618835E0,1.063515171E1
5.770447250E0,5.923781433E0,4.661755829E0,-7.640411682E0,1.073308178E1
5.780464250E0,5.452860718E0,4.856051788E0,-7.325915680E0,1.034330554E1
5.790481250E0,5.057532806E0,5.079537048E0,-6.972650299E0,9.999909345E0
5.800498250E0,4.918172607E0,5.190007324E0,-6.642436981E0,9.759434762E0
5.810514250E0,4.979095917E0,5.214705963E0,-6.321654053E0,9.588944905E0
5.820531250E0,5.174888763E0,5.188959503E0,-6.417305145E0,9.740974272E0
5.830548250E0,5.647905121E0,5.131778412E0,-6.970704346E0,1.033560356E1
5.840565250E0,6.087840271E0,5.047353973E0,-7.321125641E0,1.077666284E1
5.850581250E0,6.240223389E0,4.879253540E0,-7.009024658E0,1.057704731E1
5.860598250E0,5.957162018E0,4.738695831E0,-6.701863403E0,1.014189285E1
5.870615250E0,5.550158386E0,4.691843262E0,-6.311325531E0,9.625512000E0
5.880631250E0,5.420677643E0,4.656067657E0,-5.919290771E0,9.279047116E0
5.890648250E0,5.632038116E0,4.708608398E0,-5.729186096E0,9.312057760E0
5.900665250E0,5.970933380E0,4.868475952E0,-5.589676208E0,9.518328826E0
5.910682250E0,6.460864563E0,5.019062805E0,-5.999074860E0,1.014508066E1
5.920698250E0,7.409741364E0,4.934488678E0,-6.342610474E0,1.093078923E1
5.930715250E0,8.192763062E0,4.990921326E0,-6.834337921E0,1.177874514E1
5.940732250E0,8.379574585E0,5.268144836E0,-7.451654205E0,1.238942172E1
5.950749250E0,8.211324463E0,5.445376282E0,-7.094047852E0,1.214098378E1
5.960765250E0,7.286098480E0,5.465284882E0,-5.754034424E0,1.077336911E1
5.970782250E0,5.797593842E0,5.230273590E0,-4.431534576E0,8.978104192E0
5.980799250E0,4.464017029E0,4.790488129E0,-3.373235321E0,7.365795346E0
5.990816250E0,3.754342804E0,4.309837646E0,-3.572321320E0,6.740272253E0
6.000832250E0,3.916904755E0,4.047283630E0,-5.316494293E0,7.745176513E0
6.010849250E0,5.082830200E0,4.122876434E0,-6.960824890E0,9.554389362E0
6.020866250E0,6.474486237E0,4.502337341E0,-8.148305511E0,1.133952804E1
6.030883250E0,7.267686768E0,5.000800781E0,-9.013206940E0,1.261210445E1
6.040899250E0,7.197333069E0,5.520370331E0,-8.672365723E0,1.254934337E1
6.050916250E0,6.438261566E0,5.816454620E0,-7.092251587E0,1.120635485E1
6.060933250E0,5.783822479E0,5.714666290E0,-4.580923920E0,9.332463621E0
6.070950250E0,5.717210999E0,5.392685852E0,-3.252137146E0,8.505525164E0
6.080966250E0,6.026168518E0,4.960384827E0,-3.578159180E0,8.586230125E0
6.090983250E0,6.716532898E0,4.500391388E0,-4.096082153E0,9.063290011E0
6.101000250E0,7.303312683E0,4.187242584E0,-4.726121979E0,9.654408608E0
6.111016250E0,7.419471130E0,4.135749664E0,-5.412295074E0,1.007203629E1
6.121033250E0,7.198081512E0,4.403842163E0,-5.534441071E0,1.009139441E1
6.131050250E0,6.806495819E0,4.831353149E0,-5.419330444E0,9.951859176E0
6.141067250E0,6.530170441E0,5.199138336E0,-5.415288849E0,9.949850187E0
6.151083250E0,6.395600281E0,5.389841766E0,-5.423521729E0,9.968384280E0
6.161100250E0,6.459068298E0,5.357059937E0,-5.254822540E0,9.901051175E0
6.171117250E0,6.244863739E0,4.937033386E0,-4.812941437E0,9.302527992E0
6.181134250E0,5.927673340E0,4.379293213E0,-4.295018463E0,8.530105736E0
6.191150250E0,5.819448395E0,3.983815613E0,-4.288132782E0,8.253777875E0
6.201167250E0,5.997577972E0,3.886517944E0,-4.590054932E0,8.493795827E0
6.211184250E0,6.175258484E0,4.030518494E0,-4.624183960E0,8.704135452E0
6.221201250E0,6.142776031E0,4.260290680E0,-4.896168365E0,8.936231796E0
6.231217250E0,6.018085327E0,4.561015320E0,-5.391338654E0,9.278294252E0
6.241234250E0,5.844147034E0,4.925657043E0,-5.467979279E0,9.397603378E0
6.251251250E0,5.491031342E0,5.317841492E0,-5.075794830E0,9.175759178E0
6.261267250E0,4.997507629E0,5.596561890E0,-5.101391602E0,9.073080170E0
6.271284250E0,4.868176575E0,5.702840881E0,-6.181246033E0,9.717475999E0
6.281301250E0,5.466332703E0,5.661975861E0,-7.035519562E0,1.055638666E1
6.291318250E0,6.547684021E0,5.573809204E0,-7.429200897E0,1.136364999E1
6.301334250E0,7.542964325E0,5.343438263E0,-7.397317200E0,1.183929664E1
6.311351250E0,7.825876007E0,5.076243896E0,-6.405629425E0,1.131568273E1
6.321368250E0,6.781497803E0,5.047503662E0,-5.439688110E0,1.005267190E1
6.331385250E0,5.516777802E0,5.189558258E0,-5.715564423E0,9.488626291E0
6.341401250E0,5.190007324E0,5.207670593E0,-6.115083618E0,9.562962757E0
6.351418250E0,5.417085114E0,5.140310669E0,-6.219865723E0,9.718761984E0
6.361435250E0,5.604794769E0,5.038971405E0,-6.810986481E0,1.015846908E1
6.371452250E0,5.846841431E0,4.947661285E0,-7.653284912E0,1.082763487E1
6.381468250E0,6.064937897E0,4.820425873E0,-7.644602966E0,1.088392998E1
6.391485250E0,5.823190613E0,4.846621399E0,-7.289092255E0,1.051333219E1
6.401502250E0,5.081782379E0,5.026846619E0,-6.917714539E0,9.947284731E0
6.411518250E0,4.171375580E0,5.180427246E0,-6.423891449E0,9.246814696E0
6.421535250E0,3.655847626E0,5.297783203E0,-6.691834259E0,9.285061900E0
6.431552250E0,3.829037476E0,5.227279816E0,-7.149881744E0,9.649186039E0
6.441569250E0,4.226311340E0,4.944368134E0,-7.311994629E0,9.786406350E0
6.451585250E0,4.468807068E0,4.607867889E0,-7.456893311E0,9.839102649E0
6.461602250E0,4.549339600E0,4.342170410E0,-7.545808411E0,9.822940458E0
6.471619250E0,4.463118896E0,4.131857758E0,-7.189998322E0,9.417417623E0
6.481636250E0,4.302053833E0,4.146078186E0,-6.868766327E0,9.103712559E0
6.491652250E0,4.354145508E0,4.244423676E0,-6.852599945E0,9.161432281E0
6.501669250E0,4.611909485E0,4.407434692E0,-6.890620880E0,9.390199454E0
6.511686250E0,4.818330231E0,4.493954773E0,-6.872209167E0,9.520461888E0
6.521703250E0,5.084626465E0,4.542004852E0,-7.000791779E0,9.772119519E0
6.531719250E0,5.551505585E0,4.601131897E0,-7.292535095E0,1.025527655E1
6.541736250E0,5.929469604E0,4.664300537E0,-7.349267120E0,1.053214302E1
6.551753250E0,5.980064392E0,4.693489838E0,-7.124434662E0,1.041861729E1
6.561770250E0,5.730233917E0,4.662204895E0,-6.797065430E0,1.003851750E1
6.571786250E0,5.301226044E0,4.649331665E0,-6.470744019E0,9.570256561E0
6.581803250E0,4.962779846E0,4.619693298E0,-6.007008362E0,9.058415945E0
6.591820250E0,5.036127319E0,4.573140106E0,-5.688171387E0,8.867439457E0
6.601836250E0,5.584736481E0,4.615801392E0,-5.916446686E0,9.354103133E0
6.611853250E0,6.405928802E0,4.716392212E0,-6.268813934E0,1.012809496E1
6.621870250E0,7.114106140E0,4.879702606E0,-6.878645782E0,1.103348411E1
6.631886625E0,7.479047241E0,5.076393585E0,-7.123985596E0,1.150900040E1
6.641902625E0,7.340435486E0,5.199737091E0,-6.614145813E0,1.116540119E1
6.651919625E0,6.497089233E0,5.253774719E0,-5.500162354E0,1.000330462E1
6.661936625E0,5.439538422E0,5.002597046E0,-4.114793243E0,8.458491525E0
6.671953625E0,4.465962982E0,4.493356018E0,-3.466042328E0,7.221393431E0
6.681969625E0,3.984114990E0,4.117936707E0,-4.215683441E0,7.113547768E0
6.691986625E0,4.606820068E0,4.117787018E0,-5.711522827E0,8.414300569E0
6.702003625E0,6.053262177E0,4.499343567E0,-7.580087128E0,1.069316587E1
6.712020625E0,7.695048065E0,5.076243896E0,-9.041498108E0,1.291242444E1
6.722036625E0,8.685089264E0,5.357359314E0,-9.214388580E0,1.374907383E1
6.732053625E0,8.261470184E0,5.005141754E0,-6.642137604E0,1.172268423E1
6.742070625E0,6.274951172E0,4.144730988E0,-3.307821350E0,8.215563843E0
6.752086625E0,4.618645477E0,3.367397461E0,-2.154469757E0,6.108436104E0
6.762103625E0,4.545597382E0,3.112776947E0,-3.152594147E0,6.347494445E0
6.772120625E0,5.946983185E0,3.546425171E0,-4.964127045E0,8.519759258E0
6.782137625E0,7.308701477E0,4.420158234E0,-6.183341675E0,1.054460195E1
6.792153625E0,8.379724274E0,5.111420746E0,-6.437962189E0,1.173855860E1
6.802170625E0,8.931776276E0,5.435047760E0,-5.966891785E0,1.203827933E1
6.812187625E0,8.544381866E0,5.412893829E0,-4.976850586E0,1.127275134E1
6.822204625E0,8.213270416E0,5.206173706E0,-4.002826080E0,1.051592470E1
6.832220625E0,8.280031586E0,4.926555176E0,-3.378624115E0,1.021004260E1
6.842237625E0,8.512947235E0,4.672982483E0,-3.199297028E0,1.022460451E1
6.852254625E0,8.450077972E0,4.446054382E0,-3.296445007E0,1.010137451E1
6.862271625E0,7.941585388E0,4.163142700E0,-3.430117035E0,9.600324916E0
6.872287625E0,7.314539337E0,3.933669891E0,-3.503015442E0,9.013731842E0
6.882304625E0,7.065457306E0,3.903732147E0,-3.662134552E0,8.864030748E0
6.892321625E0,7.448361053E0,4.108506317E0,-4.085304565E0,9.436504646E0
6.902338625E0,7.918233948E0,4.423301697E0,-4.755161591E0,1.024087831E1
6.912354625E0,8.005053406E0,4.618196411E0,-5.321883087E0,1.066447644E1
6.922371625E0,7.609126740E0,4.564757538E0,-4.931195526E0,1.015147824E1
6.932388625E0,6.778953094E0,4.334236908E0,-3.987258453E0,8.979868852E0
6.942404625E0,6.036646729E0,4.093836823E0,-3.447929993E0,8.067764553E0
6.952421625E0,5.583538971E0,3.966900787E0,-3.565136261E0,7.721554627E0
6.962438625E0,5.400619354E0,3.972738647E0,-4.216880951E0,7.920317337E0
6.972455625E0,5.391188965E0,4.101620636E0,-5.144052887E0,8.505850363E0
6.982471625E0,5.400769043E0,4.397704926E0,-6.528823242E0,9.546394492E0
6.992488625E0,5.509143677E0,4.793032837E0,-7.683821411E0,1.060023298E1
7.002505625E0,5.933211823E0,5.251828766E0,-8.280480652E0,1.146084935E1
7.012522625E0,6.666985931E0,5.655389557E0,-8.322842560E0,1.207070175E1
7.022538625E0,7.524702301E0,5.846392365E0,-7.951315155E0,1.241067529E1
7.032555625E0,8.236921234E0,5.725294189E0,-7.195686493E0,1.234519214E1
7.042572625E0,8.117918701E0,5.194947052E0,-5.628445587E0,1.116098018E1
7.052588625E0,6.739884338E0,4.724625092E0,-4.623884583E0,9.440785549E0
7.062605625E0,5.553152161E0,4.602628784E0,-5.651946716E0,9.163306845E0
7.072622625E0,6.089786224E0,4.551285553E0,-7.277266846E0,1.052417736E1
7.082639625E0,7.417525177E0,4.474644928E0,-8.040679321E0,1.181924917E1
7.092655625E0,8.192463684E0,4.367467804E0,-8.230334930E0,1.240683881E1
7.102672625E0,8.063132629E0,4.198768616E0,-7.617808685E0,1.186063973E1
7.112689625E0,7.064259796E0,4.107458496E0,-6.769522705E0,1.061138160E1
7.122706625E0,5.991889801E0,4.101171570E0,-6.359375610E0,9.652150527E0
7.132722625E0,5.457950134E0,4.168531494E0,-6.411167908E0,9.395155583E0
7.142739625E0,5.031486969E0,4.327351227E0,-6.527775421E0,9.308795932E0
7.152756625E0,4.430786133E0,4.487817535E0,-6.752308502E0,9.239374551E0
7.162773625E0,3.921545105E0,4.470303955E0,-7.031627655E0,9.209013027E0
7.172789625E0,3.877686310E0,4.260739746E0,-7.278164978E0,9.282350982E0
7.182806625E0,4.259841614E0,3.992048492E0,-7.417974243E0,9.439758663E0
7.192823625E0,4.828359375E0,3.805536346E0,-7.480843506E0,9.682880806E0
7.202839625E0,5.122048645E0,3.774850159E0,-7.169940033E0,9.586079288E0
7.212856625E0,5.003944244E0,3.885769501E0,-7.012317810E0,9.450463676E0
7.222873625E0,4.576433258E0,4.040248260E0,-6.744075623E0,9.096697388E0
7.232890625E0,4.187392273E0,4.178111572E0,-6.360124054E0,8.685738215E0
7.242906625E0,4.234244843E0,4.332440643E0,-6.340365143E0,8.769213275E0
7.252923625E0,4.620292053E0,4.415068817E0,-6.613996124E0,9.197003645E0
7.262940625E0,4.863685913E0,4.494254150E0,-7.010371857E0,9.643602781E0
7.272957625E0,5.087320862E0,4.451143799E0,-7.204967194E0,9.879527667E0
7.282973625E0,5.473517761E0,4.253704376E0,-7.190297699E0,9.987681343E0
7.292990625E0,5.854475555E0,4.052223358E0,-7.123536530E0,1.007175113E1
7.303007625E0,6.184838562E0,4.041296082E0,-6.933431854E0,1.013196819E1
7.313024625E0,6.438261566E0,4.131109314E0,-6.547234955E0,1.006894045E1
7.323040625E0,6.591842194E0,4.298161926E0,-6.455475769E0,1.017839608E1
7.333057625E0,6.715934143E0,4.511019287E0,-6.715335388E0,1.051421874E1
7.343074625E0,6.832691345E0,4.615801392E0,-6.648424530E0,1.059211227E1
7.353090625E0,6.687044220E0,4.625231781E0,-6.098019104E0,1.016342297E1
7.363107625E0,6.067931671E0,4.601730652E0,-5.399421844E0,9.335388370E0
7.373124625E0,5.312452698E0,4.550237732E0,-5.072052612E0,8.640169835E0
7.383141625E0,5.147795105E0,4.527934113E0,-5.475314026E0,8.773884285E0
7.393157625E0,5.989345093E0,4.519701233E0,-6.107898560E0,9.675038950E0
7.403174625E0,7.337591400E0,4.594994659E0,-6.858437805E0,1.104501664E1
7.413191625E0,8.217012634E0,4.797373810E0,-7.364535370E0,1.203206023E1
7.423208625E0,7.802374878E0,4.963079224E0,-7.161108398E0,1.169575490E1
7.433224625E0,6.201603699E0,5.029990082E0,-6.313421173E0,1.017938974E1
7.443241625E0,4.717739410E0,4.959636383E0,-5.375022583E0,8.703213542E0
7.453258625E0,4.307742004E0,4.836442566E0,-4.905598755E0,8.124821045E0
7.463275625E0,4.926255798E0,4.707410889E0,-5.207371216E0,8.575804828E0
7.473291625E0,6.056555328E0,4.527784424E0,-5.839806061E0,9.554372248E0
7.483308625E0,7.047195282E0,4.400998077E0,-6.241121521E0,1.039150342E1
7.493325625E0,7.461833038E0,4.282893677E0,-6.140530701E0,1.057015836E1
7.503341625E0,7.388335876E0,4.242926788E0,-5.663772125E0,1.023075019E1
7.513358625E0,7.268285522E0,4.342170410E0,-5.119503937E0,9.894025413E0
7.523375625E0,7.429051208E0,4.512366486E0,-4.303101654E0,9.698914218E0
7.533392625E0,7.642806702E0,4.571343842E0,-3.536545715E0,9.582110122E0
7.543408625E0,7.750582581E0,4.530329132E0,-3.232677612E0,9.541782691E0
7.553425625E0,7.821235657E0,4.386777649E0,-3.559298401E0,9.648012772E0
7.563442625E0,7.838000793E0,4.209246826E0,-3.955674133E0,9.736496964E0
7.573459625E0,7.634124756E0,3.982618103E0,-4.197571106E0,9.579181120E0
7.583475625E0,7.322772217E0,3.851191406E0,-4.294270020E0,9.321771462E0
7.593492625E0,6.930438080E0,3.847898254E0,-4.264781342E0,9.001425045E0
7.603509625E0,6.661297760E0,3.934568024E0,-4.339326324E0,8.870370135E0
7.613526625E0,6.832541656E0,4.135599976E0,-4.583768005E0,9.208568932E0
7.623542625E0,7.329508209E0,4.322411499E0,-4.861889648E0,9.800148096E0
7.633559625E0,7.754923553E0,4.467759247E0,-5.085524597E0,1.029379777E1
7.643576625E0,7.818241882E0,4.503534851E0,-5.189408569E0,1.040849142E1
7.653592625E0,7.487130432E0,4.432432709E0,-5.031636658E0,1.005091783E1
7.663609625E0,7.014413452E0,4.318070526E0,-4.409230957E0,9.342860738E0
7.673626625E0,6.455775146E0,4.231251068E0,-4.082011414E0,8.731742983E0
7.683643625E0,5.985602875E0,4.161795502E0,-4.066443787E0,8.347691216E0
7.693659625E0,5.610632629E0,4.087400208E0,-4.456382904E0,8.248962816E0
7.703676625E0,5.377716980E0,4.123774567E0,-5.151537323E0,8.512560918E0
7.713693625E0,5.285359039E0,4.281995544E0,-6.071075134E0,9.117480974E0
7.723710625E0,5.414091339E0,4.657414856E0,-7.015311584E0,1.001091878E1
7.733726625E0,5.893394623E0,5.101840668E0,-7.549101563E0,1.085125858E1
7.743743625E0,6.684499512E0,5.383255463E0,-7.463180237E0,1.137369915E1
7.753760625E0,7.491621094E0,5.299429779E0,-7.106472015E0,1.160647608E1
7.763776625E0,7.944579163E0,4.998256073E0,-5.976172485E0,1.112715325E1
7.773793625E0,7.270680542E0,4.871020660E0,-5.260061646E0,1.021067512E1
7.783810625E0,6.420298920E0,4.873116302E0,-5.572312317E0,9.798885920E0
7.793827625E0,6.336323547E0,4.779411163E0,-6.044131165E0,9.976135960E0
7.803843625E0,6.524033203E0,4.652924194E0,-6.649771729E0,1.041307720E1
7.813860625E0,6.736291809E0,4.567451935E0,-7.404502258E0,1.100299497E1
7.823877625E0,7.016509094E0,4.505331116E0,-7.558382263E0,1.125426811E1
7.833894625E0,7.242539063E0,4.478686523E0,-7.075636139E0,1.107147830E1
7.843910625E0,7.198829956E0,4.300856323E0,-6.432274017E0,1.056856977E1
7.853927625E0,6.624624023E0,4.104764099E0,-5.809269562E0,9.720202910E0
7.863944625E0,5.699248352E0,4.081562347E0,-5.966592407E0,9.205477061E0
7.873961625E0,4.869074707E0,4.174668732E0,-6.352938995E0,9.027490316E0
7.883977625E0,4.337530060E0,4.221670990E0,-6.753356323E0,9.068875046E0
7.893994625E0,4.137695618E0,4.193080444E0,-7.254065094E0,9.344726268E0
7.904011625E0,4.275558929E0,4.139042816E0,-7.666158142E0,9.704744214E0
7.914027625E0,4.546495514E0,4.087400208E0,-7.849377136E0,9.949381053E0
7.924044625E0,4.783452759E0,4.099375305E0,-7.993677063E0,1.017768005E1
7.934061625E0,4.826862488E0,4.219275970E0,-8.032745819E0,1.027744601E1
7.944078625E0,4.678520966E0,4.384232941E0,-7.659571838E0,9.988948776E0
7.954094625E0,4.531526642E0,4.487817535E0,-7.023095398E0,9.486786016E0
7.964111625E0,4.491859131E0,4.528832245E0,-6.628515930E0,9.199149058E0
7.974128625E0,4.452640686E0,4.548591156E0,-6.657555542E0,9.210794557E0
7.984145625E0,4.463268585E0,4.544848938E0,-6.853647766E0,9.356757239E0
7.994161625E0,4.722828827E0,4.526736603E0,-6.998845825E0,9.580203510E0
8.004178625E0,5.307512970E0,4.519551544E0,-7.322472839E0,1.011012604E1
8.014195625E0,5.970184937E0,4.607568512E0,-7.778724060E0,1.083426711E1
8.024211625E0,6.464756470E0,4.699327698E0,-7.913443909E0,1.124719305E1
8.034228625E0,6.705904999E0,4.823269958E0,-7.548652496E0,1.118996200E1
8.044245625E0,6.767127686E0,4.937482452E0,-7.174430695E0,1.102928855E1
8.054262625E0,6.808591461E0,4.758005676E0,-6.336024170E0,1.044704446E1
8.064278625E0,6.618935852E0,4.478985901E0,-5.512137451E0,9.708516148E0
8.074295625E0,6.156996460E0,4.450095978E0,-5.593268738E0,9.433801715E0
8.084312625E0,5.893544312E0,4.599485321E0,-5.523513794E0,9.295070436E0
8.094329625E0,5.994434509E0,4.713548126E0,-5.403613129E0,9.346112340E0
8.104345625E0,6.537804565E0,4.755311279E0,-5.777834930E0,9.936762570E0
8.114362625E0,7.456593933E0,4.780159607E0,-6.577621765E0,1.103248961E1
8.124379625E0,8.163124695E0,4.759801941E0,-7.023394775E0,1.177371621E1
8.134396625E0,7.528743896E0,4.609514465E0,-6.553671570E0,1.099455408E1
8.144412625E0,5.833968201E0,4.509971466E0,-5.872438202E0,9.426587825E0
8.154429625E0,4.400099945E0,4.449796600E0,-5.477110291E0,8.316267579E0
8.164446625E0,3.838467865E0,4.494104462E0,-5.922134857E0,8.366749173E0
8.174462625E0,4.437821503E0,4.744683380E0,-7.107070770E0,9.628952955E0
8.184479625E0,5.541027374E0,5.052443390E0,-8.122708740E0,1.105479832E1
8.194496625E0,6.303841095E0,5.224136353E0,-8.147108002E0,1.155012476E1
8.204513625E0,6.284830627E0,5.202581177E0,-7.029232635E0,1.076921809E1
8.214529625E0,5.712720337E0,4.924758911E0,-5.261259155E0,9.196155277E0
8.224546625E0,5.164260864E0,4.512965240E0,-4.084256744E0,7.982330405E0
8.234563625E0,5.041965179E0,4.224664764E0,-4.265679474E0,7.839976187E0
8.244580625E0,5.443580017E0,4.054618378E0,-5.003794556E0,8.432701438E0
8.254596625E0,5.957311707E0,3.984713745E0,-5.485642548E0,9.025507219E0
8.264613625E0,6.144272919E0,4.021986237E0,-5.529351654E0,9.192507422E0
8.274630625E0,5.890400848E0,4.096980286E0,-5.497168579E0,9.038856786E0
8.284646625E0,5.608237610E0,4.257446594E0,-5.519921265E0,8.946938659E0
8.294663625E0,5.529950409E0,4.405189362E0,-5.181175690E0,8.765308116E0
8.304680625E0,5.388943634E0,4.530628510E0,-4.673281860E0,8.450258666E0
8.314697625E0,5.076543274E0,4.604275360E0,-4.472549286E0,8.183785207E0
8.324713625E0,4.632267151E0,4.593647461E0,-5.020260315E0,8.231798685E0
8.334730625E0,4.361929321E0,4.558769989E0,-5.929170227E0,8.658167866E0
8.344747625E0,4.503834229E0,4.633015594E0,-6.687493286E0,9.299028052E0
8.354764625E0,5.084626465E0,4.807103577E0,-7.285799103E0,1.010170974E1
8.364780625E0,5.856870575E0,5.009482727E0,-7.812853088E0,1.097444867E1
8.374797625E0,6.652466125E0,5.156926117E0,-8.041128387E0,1.164083065E1
8.384814625E0,7.082970886E0,5.357658691E0,-7.542964325E0,1.165200815E1
8.394830625E0,7.415279846E0,5.577401733E0,-7.235653381E0,1.176641259E1
8.404847625E0,8.533604279E0,5.325924683E0,-7.017107849E0,1.226489618E1
8.414864625E0,9.636660461E0,4.776417389E0,-6.587501221E0,1.261247637E1
8.424881625E0,9.043593750E0,4.299060059E0,-6.657256165E0,1.202445695E1
8.434897625E0,7.057224426E0,4.005819855E0,-5.760770416E0,9.951757890E0
8.444914625E0,5.017416229E0,3.849694519E0,-4.127067719E0,7.551642302E0
8.454931625E0,3.971990204E0,3.829486542E0,-4.268224182E0,6.975629794E0
8.464948625E0,4.099824371E0,3.922443237E0,-5.661077728E0,8.015105855E0
8.474964625E0,4.707710266E0,4.020788727E0,-6.656956787E0,9.090893883E0
8.484981625E0,5.282814331E0,4.207300873E0,-7.632927246E0,1.019171655E1
8.494998625E0,5.857169952E0,4.431085510E0,-8.497080231E0,1.123126578E1
8.505015625E0,6.264173584E0,4.492757263E0,-9.001381531E0,1.185114374E1
8.515031625E0,6.049519958E0,4.547992401E0,-8.918603668E0,1.169711152E1
8.525048625E0,5.264103241E0,4.638254700E0,-8.346643066E0,1.090369846E1
8.535065625E0,4.627926178E0,4.797822876E0,-7.627388763E0,1.012985017E1
8.545081625E0,4.424648895E0,5.047952728E0,-7.143295441E0,9.802347390E0
8.555098625E0,4.330045624E0,5.127287750E0,-6.705904999E0,9.487230187E0
8.565115625E0,4.211791534E0,4.913981323E0,-6.083499298E0,8.882306237E0
8.575132625E0,4.310885468E0,4.535268860E0,-5.849386139E0,8.565495628E0
8.585148625E0,4.868176575E0,4.156855774E0,-6.354735260E0,9.020047301E0
8.595165625E0,5.458698578E0,3.938908997E0,-7.066205750E0,9.759285729E0
8.605182625E0,5.688770142E0,3.954476624E0,-7.480693817E0,1.019611549E1
8.615199625E0,5.591173096E0,4.211192780E0,-7.470814362E0,1.023759876E1
8.625215625E0,5.473368073E0,4.554578705E0,-7.381150818E0,1.025589258E1
8.635233375E0,5.451663208E0,4.839436340E0,-7.248077545E0,1.027985428E1
8.645250375E0,5.462440796E0,5.043162689E0,-7.279811554E0,1.040516245E1
8.655266375E0,5.580395508E0,5.184169464E0,-7.453450470E0,1.065693910E1
8.665283375E0,5.722300415E0,5.007087708E0,-7.032076721E0,1.035691809E1
8.675300375E0,5.524411926E0,4.549938354E0,-5.996829529E0,9.337185366E0
8.685317375E0,5.375022583E0,4.169279938E0,-5.471122742E0,8.729659044E0
8.695333375E0,5.809119873E0,4.067940674E0,-5.723647614E0,9.113405348E0
8.705350375E0,6.731052704E0,4.026027832E0,-6.054010620E0,9.907926887E0
8.715367375E0,7.792196045E0,3.985312500E0,-5.895639954E0,1.055270607E1
8.725384375E0,8.605903931E0,4.120631104E0,-5.906118164E0,1.122156027E1
8.735400375E0,9.214089203E0,4.524491272E0,-6.602470093E0,1.220504291E1
8.745417375E0,9.652826843E0,4.947511597E0,-7.259603577E0,1.305207957E1
8.755434375E0,8.892707520E0,5.160069580E0,-7.475604401E0,1.271185377E1
8.765450375E0,6.654861145E0,5.090314636E0,-6.438261566E0,1.056644178E1
8.775467375E0,4.378395081E0,4.869972839E0,-4.497247925E0,7.944319847E0
8.785484375E0,2.890489197E0,4.621489563E0,-4.045637054E0,6.788245190E0
8.795501375E0,2.831661530E0,4.413272552E0,-5.213358765E0,7.394213362E0
8.805517375E0,4.070186005E0,4.327650604E0,-6.553970947E0,8.845875256E0
8.815534375E0,5.865402832E0,4.372557220E0,-7.586823120E0,1.053954895E1
8.825551375E0,7.180118866E0,4.504283295E0,-8.690627747E0,1.213959166E1
8.835568375E0,7.336244202E0,4.548740845E0,-8.684640198E0,1.224477430E1
8.845584375E0,6.397546234E0,4.537364502E0,-7.000642090E0,1.051309964E1
8.855601375E0,5.359904022E0,4.544549561E0,-4.828209686E0,8.526025487E0
8.865618375E0,5.094505920E0,4.580325165E0,-3.768862610E0,7.819059698E0
8.875634375E0,5.755231934E0,4.658312988E0,-4.045786743E0,8.437473845E0
8.885651375E0,6.853498077E0,4.778063965E0,-4.744833069E0,9.608005620E0
8.895668375E0,7.692503357E0,4.744533691E0,-4.934937744E0,1.029751516E1
8.905685375E0,7.969427490E0,4.557722168E0,-4.766837311E0,1.034443540E1
8.915701375E0,7.776329041E0,4.286186829E0,-4.769831085E0,1.007938388E1
8.925718375E0,7.411986694E0,4.047283630E0,-4.733007660E0,9.680878733E0
8.935735375E0,7.195686493E0,4.033362579E0,-4.715494080E0,9.501673653E0
8.945752375E0,7.185058594E0,4.162693634E0,-4.733905792E0,9.558396797E0
8.955768375E0,7.263645172E0,4.355343018E0,-4.693190460E0,9.682747063E0
8.965785375E0,7.209008789E0,4.522994385E0,-4.789140930E0,9.765406124E0
8.975802375E0,6.884783020E0,4.574487305E0,-4.870870972E0,9.594350179E0
8.985818375E0,6.500831451E0,4.555925903E0,-5.076543274E0,9.422768277E0
8.995835375E0,5.970184937E0,4.512366486E0,-4.954696655E0,8.975164535E0
9.005852375E0,5.271288300E0,4.359683990E0,-4.573439484E0,8.228588794E0
9.015869375E0,4.695884857E0,4.215384064E0,-5.271887054E0,8.222748355E0
9.025885375E0,4.652475128E0,4.200564880E0,-6.023025055E0,8.692933966E0
9.035902375E0,4.814887390E0,4.333787842E0,-6.206393738E0,8.971297613E0
9.045919375E0,4.862638092E0,4.528383179E0,-6.434519348E0,9.249569864E0
9.055936375E0,4.898114319E0,4.767436066E0,-6.324498138E0,9.312316963E0
9.065952375E0,5.035678253E0,5.014871521E0,-5.967939606E0,9.280263734E0
9.075969375E0,5.370382233E0,5.210215302E0,-5.977369995E0,9.576862789E0
9.085986375E0,5.983656921E0,5.299280090E0,-6.466702423E0,1.028128201E1
9.096002375E0,6.602769470E0,5.138065338E0,-6.978937225E0,1.089503763E1
9.106019375E0,6.654861145E0,4.998405762E0,-7.087461548E0,1.093175870E1
9.116036375E0,6.363566895E0,5.079537048E0,-7.527247009E0,1.108855842E1
9.126053375E0,6.903045044E0,4.981341248E0,-7.620054016E0,1.142501706E1
9.136069375E0,7.996820526E0,4.593497772E0,-7.020700378E0,1.159049585E1
9.146086375E0,8.661887512E0,4.163741455E0,-6.799909515E0,1.177301183E1
9.156103375E0,8.573720856E0,3.917653198E0,-6.430926819E0,1.141111369E1
9.166120375E0,8.025261383E0,3.874842224E0,-5.507646790E0,1.047632549E1
9.176136375E0,7.316485291E0,3.917204132E0,-5.406307526E0,9.904726462E0
9.186153375E0,6.437662811E0,4.003574524E0,-6.097869415E0,9.729137826E0
9.196170375E0,5.345533905E0,4.114044800E0,-6.475683746E0,9.350645824E0
9.206186375E0,4.451293488E0,4.156257019E0,-6.483617249E0,8.895267210E0
9.216203375E0,4.210893402E0,4.164190521E0,-6.718329163E0,8.955894856E0
9.226220375E0,4.552183685E0,4.097728729E0,-7.354356537E0,9.570805458E0
9.236237375E0,4.938380585E0,4.085454254E0,-7.859705658E0,1.014167207E1
9.246253375E0,4.995411987E0,4.150868225E0,-7.966284027E0,1.027840110E1
9.256270375E0,4.813540192E0,4.299958191E0,-7.888296204E0,1.019240043E1
9.266287375E0,4.565356293E0,4.479434967E0,-7.904013519E0,1.016765683E1
9.276304375E0,4.252207489E0,4.627477112E0,-7.695497131E0,9.935566871E0
9.286320375E0,3.908073120E0,4.739444275E0,-7.367379456E0,9.592374450E0
9.296337375E0,3.946393433E0,4.722230072E0,-7.182364197E0,9.458320857E0
9.306354375E0,4.777016144E0,4.516557770E0,-7.154971161E0,9.716624395E0
9.316370375E0,5.720653839E0,4.285588074E0,-7.228019257E0,1.016545168E1
9.326387375E0,6.102210388E0,4.222718811E0,-7.261998596E0,1.038291623E1
9.336404375E0,6.021977234E0,4.267326050E0,-7.149582367E0,1.027573888E1
9.346421375E0,5.767356720E0,4.356390839E0,-6.961423645E0,1.003503681E1
9.356437375E0,5.669011230E0,4.443958740E0,-6.867419128E0,9.952281301E0
9.366454375E0,5.689817963E0,4.478387146E0,-6.960375824E0,1.004374489E1
9.376471375E0,5.762416992E0,4.603526917E0,-7.327262878E0,1.039647493E1
9.386488375E0,5.818699951E0,4.757855988E0,-7.574997711E0,1.067122547E1
9.396504375E0,5.546715546E0,4.833448792E0,-7.386539612E0,1.042541357E1
9.406521375E0,5.157674561E0,4.694687347E0,-6.860982513E0,9.783392929E0
9.416538375E0,5.167404327E0,4.461472321E0,-6.321055298E0,9.303899335E0
9.426554375E0,5.913752289E0,4.297563171E0,-6.181844788E0,9.573751633E0
9.436571375E0,7.314239960E0,3.995790710E0,-5.904172211E0,1.021389735E1
9.446588375E0,8.943302307E0,3.826792145E0,-6.435118103E0,1.166352174E1
9.456605375E0,9.811646576E0,4.247716827E0,-7.335046692E0,1.296589437E1
9.466621375E0,1.005713608E1,4.798122253E0,-7.786358185E0,1.359394487E1
9.476638375E0,8.831634521E0,5.322930908E0,-7.160659332E0,1.255413891E1
9.486655375E0,6.311624908E0,5.474415894E0,-5.090164948E0,9.783435877E0
9.496672375E0,3.870351563E0,5.203179932E0,-3.286715240E0,7.270158161E0
9.506688375E0,2.510130157E0,4.759652252E0,-2.907254333E0,6.116140182E0
9.516705375E0,2.934048615E0,4.313280487E0,-4.267625427E0,6.739855831E0
9.526722375E0,4.858147430E0,4.099225616E0,-6.432423706E0,9.043302596E0
9.536738375E0,6.998546448E0,4.113595734E0,-8.178243256E0,1.152323674E1
9.546755375E0,8.166118469E0,4.289479980E0,-8.886270905E0,1.280823719E1
9.556772375E0,7.538024597E0,4.556225281E0,-8.560398560E0,1.228256598E1
9.566789375E0,5.699547729E0,4.711602173E0,-6.766528931E0,1.002347011E1
9.576805375E0,4.017046509E0,4.740342407E0,-4.393813019E0,7.610065810E0
9.586822375E0,3.453468475E0,4.794529724E0,-3.245401154E0,6.741408490E0
9.596839375E0,4.357588348E0,4.863835602E0,-3.575015717E0,7.444878129E0
9.606856375E0,6.174060974E0,4.837939453E0,-4.535717926E0,9.060762891E0
9.616872375E0,7.561825104E0,4.640500031E0,-5.270090790E0,1.031936511E1
9.626889375E0,7.903564453E0,4.348307648E0,-5.409450989E0,1.051837775E1
9.636905666E0,7.513775024E0,4.118086395E0,-5.093158722E0,9.967733767E0
9.646921666E0,6.768325195E0,4.086053009E0,-4.728966064E0,9.212446753E0
9.656938666E0,6.209836578E0,4.242627411E0,-4.827610931E0,8.936877810E0
9.666955667E0,5.965394897E0,4.424349518E0,-4.697830811E0,8.788083936E0
9.676972666E0,6.033952332E0,4.589007111E0,-4.736450500E0,8.938765594E0
9.686988667E0,6.271208954E0,4.698130188E0,-5.005141754E0,9.297953161E0
9.697005666E0,6.584806824E0,4.760550385E0,-5.165907440E0,9.628557553E0
9.707022666E0,6.554719391E0,4.753515015E0,-5.322332153E0,9.689554729E0
9.717038666E0,6.053561554E0,4.716392212E0,-5.269192657E0,9.308832056E0
9.727055667E0,5.256469116E0,4.785249023E0,-5.292993164E0,8.862553380E0
9.737072667E0,4.657863922E0,5.018464050E0,-6.242917786E0,9.265781145E0
9.747089666E0,4.479734344E0,5.279521179E0,-6.934180298E0,9.799194869E0
9.757105667E0,4.648134155E0,5.463039551E0,-7.071744232E0,1.007271159E1
9.767122666E0,5.132377167E0,5.561983795E0,-7.400610352E0,1.058517797E1
9.777139666E0,6.106850739E0,5.442232819E0,-7.778424683E0,1.128784366E1
9.787156667E0,7.357200623E0,5.025649109E0,-7.319329376E0,1.153074726E1
9.797172667E0,8.024363251E0,4.544998627E0,-6.300248566E0,1.116873091E1
9.807189667E0,7.614814911E0,4.353546753E0,-5.930816803E0,1.058835981E1
9.817206666E0,7.203170929E0,4.422702942E0,-6.507268066E0,1.066726349E1
9.827222666E0,7.144492950E0,4.376598816E0,-6.900200958E0,1.085408540E1
9.837239666E0,6.726262665E0,4.293072510E0,-7.026538239E0,1.063227730E1
9.847256667E0,6.104156342E0,4.257596283E0,-6.912774811E0,1.015747539E1
9.857273667E0,5.855673065E0,4.255051575E0,-6.524931335E0,9.745209073E0
9.867289667E0,6.224356384E0,4.231849823E0,-5.878276062E0,9.550146323E0
9.877306667E0,6.755152588E0,4.322112122E0,-5.615722046E0,9.790254020E0
9.887323666E0,7.075486450E0,4.513114929E0,-6.050567780E0,1.034601785E1
9.897340667E0,6.819518738E0,4.618495789E0,-6.566245422E0,1.053337164E1
9.907356666E0,6.035449219E0,4.671186218E0,-6.796466675E0,1.021951991E1
9.917373667E0,5.101391602E0,4.693639526E0,-6.619983673E0,9.585334220E0
9.927390667E0,4.608167267E0,4.636907501E0,-6.768175507E0,9.409798958E0
9.937406667E0,4.718038788E0,4.453838196E0,-7.088958435E0,9.609885346E0
9.947423666E0,4.926255798E0,4.289929047E0,-7.369026031E0,9.847539392E0
9.957440666E0,4.865332489E0,4.188440094E0,-7.578141174E0,9.931903861E0
9.967457667E0,4.534370728E0,4.176015930E0,-7.473209381E0,9.687542795E0
9.977473666E0,4.086352386E0,4.375101929E0,-7.156168671E0,9.330088036E0
9.987490667E0,3.720363464E0,4.658163300E0,-6.785689087E0,9.032450720E0
9.997507666E0,3.821702728E0,4.768334198E0,-6.629563751E0,9.016292935E0
1.000752467E1,4.241878967E0,4.704716492E0,-6.618337097E0,9.161347083E0
1.001754067E1,4.781806183E0,4.636757812E0,-6.775659943E0,9.501303123E0
1.002755767E1,5.336402893E0,4.608167267E0,-7.071594543E0,9.985982715E0
1.003757467E1,5.789211273E0,4.561015320E0,-7.185058594E0,1.029285650E1
1.004759067E1,6.168223114E0,4.505181427E0,-7.113657074E0,1.043780403E1
1.005760767E1,6.205645294E0,4.535268860E0,-6.936425629E0,1.035339064E1
1.006762467E1,5.846092987E0,4.688400421E0,-6.842570801E0,1.014784100E1
1.007764167E1,5.425317993E0,4.945565643E0,-6.641389160E0,9.899532556E0
1.008765767E1,4.949607239E0,5.082530823E0,-6.378236389E0,9.540054026E0
1.009767467E1,4.392016754E0,5.124443665E0,-6.402635651E0,9.302874680E0
1.010769167E1,4.243375854E0,5.118306427E0,-6.760691071E0,9.482101195E0
1.011770867E1,4.799768829E0,4.882097626E0,-6.939120026E0,9.748027738E0
1.012772467E1,5.578000488E0,4.478985901E0,-6.562952271E0,9.708127865E0
1.013774167E1,6.311325531E0,4.169429626E0,-6.078709259E0,9.704003278E0
1.014775867E1,7.759414215E0,3.692221985E0,-5.801485748E0,1.036813624E1
1.015777467E1,8.897946625E0,3.565884705E0,-6.383176117E0,1.151668030E1
1.016779167E1,8.959468689E0,4.014950867E0,-7.228618011E0,1.219199852E1
1.017780867E1,8.605005798E0,4.671335907E0,-7.063960419E0,1.207340220E1
1.018782567E1,8.104297028E0,5.286855927E0,-6.351292419E0,1.157451473E1
1.019784167E1,7.924520874E0,5.751489716E0,-6.679260406E0,1.185285555E1
1.020785867E1,8.009544067E0,5.978866882E0,-6.762637024E0,1.206784591E1
1.021787567E1,7.380252686E0,5.851631470E0,-5.488786011E0,1.090121518E1
1.022789167E1,5.479355621E0,5.489235077E0,-3.988455963E0,8.721400158E0
1.023790867E1,3.351231079E0,5.076842651E0,-3.943399658E0,7.249515978E0
1.024792567E1,2.076182556E0,4.752916260E0,-5.515729980E0,7.571263052E0
1.025794267E1,2.063459015E0,4.528383179E0,-7.326514435E0,8.856744949E0
1.026795867E1,3.161725159E0,4.491859131E0,-8.537047119E0,1.015157515E1
1.027797567E1,4.556973724E0,4.533921661E0,-8.911867676E0,1.098835022E1
1.028799267E1,5.413193207E0,4.475992126E0,-8.461903381E0,1.099731672E1
1.029800967E1,5.439239044E0,4.417463837E0,-6.963219910E0,9.878549470E0
1.030802567E1,5.405858459E0,4.476890259E0,-5.384153595E0,8.846183471E0
1.031804267E1,5.825885010E0,4.742587738E0,-4.834945679E0,8.933631642E0
1.032805967E1,6.708000641E0,4.935536499E0,-4.559817810E0,9.494668588E0
1.033807567E1,7.259453888E0,4.951852570E0,-4.735851746E0,9.982424875E0
1.034809267E1,7.142696686E0,4.801415405E0,-5.163063354E0,1.003638028E1
1.035810967E1,6.872658234E0,4.556824036E0,-5.010380859E0,9.648937395E0
1.036812667E1,6.735693054E0,4.344266052E0,-4.623585205E0,9.253094002E0
1.037814267E1,6.727160797E0,4.171375580E0,-4.646487579E0,9.178502789E0
1.038815967E1,6.529721375E0,4.142635345E0,-5.231022034E0,9.336074140E0
1.039817667E1,6.443500671E0,4.185745697E0,-5.500012665E0,9.449301945E0
1.040819267E1,6.377637634E0,4.372108154E0,-5.990991669E0,9.781695798E0
1.041820967E1,6.129453735E0,4.599185944E0,-6.436614990E0,1.000763344E1
1.042822667E1,5.804928589E0,4.949457550E0,-7.029382324E0,1.037335731E1
1.043824367E1,5.794001312E0,5.336103516E0,-7.205715637E0,1.067552293E1
1.044825967E1,6.150709534E0,5.587281189E0,-7.026089172E0,1.088185958E1
1.045827667E1,6.321055298E0,5.638774109E0,-6.983278198E0,1.097805483E1
1.046829367E1,6.102659454E0,5.457800446E0,-6.238427124E0,1.029310503E1
1.047831067E1,5.485043793E0,5.121599579E0,-4.954397278E0,8.992360093E0
1.048832667E1,4.803211670E0,4.806055756E0,-3.773203583E0,7.772134813E0
1.049834367E1,4.337829437E0,4.640949097E0,-3.600612488E0,7.302025954E0
1.050836067E1,4.111051025E0,4.684358826E0,-4.248016205E0,7.542519461E0
1.051837667E1,4.033661957E0,4.923860779E0,-4.838538208E0,7.995391531E0
1.052839367E1,4.170776825E0,5.257367249E0,-5.033283234E0,8.388636946E0
1.053841067E1,4.685706024E0,5.746100922E0,-5.915249176E0,9.484919059E0
1.054842767E1,5.673950958E0,6.087540894E0,-7.172933807E0,1.098648502E1
1.055844367E1,6.735094299E0,6.119424591E0,-7.419022064E0,1.174098552E1
1.056846067E1,7.113357697E0,5.985902252E0,-7.185058594E0,1.174972129E1
1.057847767E1,6.736890564E0,5.841153259E0,-6.820716248E0,1.122617192E1
1.058849467E1,6.054759064E0,5.601202240E0,-6.165977783E0,1.029819673E1
1.059851067E1,5.191953278E0,5.242398376E0,-5.256918182E0,9.059487201E0
1.060852767E1,4.491559753E0,4.856351166E0,-4.553081818E0,8.030492494E0
1.061854467E1,4.556973724E0,4.535867615E0,-4.726720734E0,7.980099839E0
1.062856067E1,5.690117340E0,4.344715118E0,-5.438640289E0,8.990705923E0
1.063857862E1,7.317383423E0,4.382286987E0,-6.563401337E0,1.076228491E1
1.064859562E1,8.391250305E0,4.602479095E0,-7.726183319E0,1.229999204E1
1.065861262E1,8.262068939E0,4.880451050E0,-8.178243256E0,1.260810249E1
1.066862862E1,6.960824890E0,5.125341797E0,-7.882458344E0,1.169851962E1
1.067864562E1,5.457950134E0,5.243446198E0,-7.178172913E0,1.043116072E1
1.068866262E1,4.513563995E0,5.221142578E0,-6.434669037E0,9.435971353E0
1.069867862E1,4.328848114E0,5.097948761E0,-6.408922577E0,9.262952886E0
1.070869562E1,4.447102203E0,4.888085175E0,-6.714437256E0,9.420921523E0
1.071871262E1,4.400399323E0,4.657115479E0,-7.011868744E0,9.498344175E0
1.072872962E1,4.399650879E0,4.493805084E0,-7.021598511E0,9.426243029E0
1.073874562E1,4.741539917E0,4.318968658E0,-7.125183105E0,9.586653501E0
1.074876262E1,5.255570984E0,4.256847839E0,-7.389533386E0,1.001733415E1
1.075877962E1,6.018833771E0,4.313879242E0,-7.819888458E0,1.076970610E1
1.076879662E1,6.392606506E0,4.305945740E0,-7.193740540E0,1.054307781E1
1.077881262E1,6.253246307E0,4.343218231E0,-6.376290436E0,9.930947271E0
1.078882962E1,5.796546021E0,4.651127930E0,-5.573060760E0,9.289345673E0
1.079884662E1,5.168302460E0,5.050048370E0,-5.056035919E0,8.819174455E0
1.080886262E1,4.610113220E0,5.283263397E0,-5.579946442E0,8.961128183E0
1.081887962E1,4.475692749E0,5.343288574E0,-6.154152374E0,9.298179920E0
1.082889662E1,5.127437439E0,5.225483551E0,-6.651717682E0,9.891493373E0
1.083891362E1,6.393804016E0,5.036127319E0,-7.185208282E0,1.085681934E1
1.084892963E1,7.048093414E0,4.905449066E0,-7.416327667E0,1.134640769E1
1.085894662E1,6.800358582E0,4.998854828E0,-7.357649689E0,1.119680469E1
1.086896362E1,6.496041412E0,4.992418213E0,-6.414610748E0,1.040528830E1
1.087897962E1,6.197711792E0,4.926555176E0,-5.871091003E0,9.856585967E0
1.088899662E1,5.798791351E0,4.902904358E0,-5.756279755E0,9.528861889E0
1.089901362E1,5.209017792E0,4.713398438E0,-5.511838074E0,8.929185301E0
1.090903062E1,4.656965790E0,4.483476562E0,-5.863007812E0,8.727184716E0
1.091904662E1,4.819228363E0,4.344864807E0,-6.755002899E0,9.366582962E0
1.092906362E1,5.455106049E0,4.172273712E0,-7.875422974E0,1.044932232E1
1.093908062E1,5.911656647E0,4.041445770E0,-8.689579926E0,1.126009625E1
1.094909762E1,5.934708710E0,4.043840790E0,-8.743018799E0,1.131431808E1
1.095911362E1,5.576653290E0,4.110302582E0,-8.047565002E0,1.061870763E1
1.096913063E1,5.258415070E0,4.245471497E0,-6.656208344E0,9.485782350E0
1.097914762E1,4.903503113E0,4.228556671E0,-4.702770538E0,8.002567403E0
1.098916362E1,4.844076691E0,3.969595184E0,-3.572171631E0,7.209935858E0
1.099918062E1,5.850733337E0,3.691922607E0,-4.222269745E0,8.104871061E0
1.100919762E1,7.523055725E0,3.804189148E0,-6.197113037E0,1.046290746E1
1.101921463E1,8.394393768E0,4.296365662E0,-8.112829285E0,1.243955802E1
1.102923062E1,7.717501373E0,4.967869263E0,-8.420140228E0,1.245545318E1
1.103924762E1,6.478677521E0,5.627996521E0,-6.731950836E0,1.090718888E1
1.104926462E1,6.340065765E0,6.099366302E0,-5.328768768E0,1.028564435E1
1.105928062E1,7.265441437E0,6.129304047E0,-5.443879395E0,1.095403260E1
1.106929762E1,7.638465729E0,5.665269012E0,-5.636079712E0,1.105471963E1
1.107931462E1,6.495891724E0,5.050647125E0,-5.338498535E0,9.808425576E0
1.108933162E1,4.899461517E0,4.555476837E0,-5.339546356E0,8.559663992E0
1.109934762E1,4.268822937E0,4.284839630E0,-5.886508942E0,8.440005180E0
1.110936462E1,4.683760071E0,4.167184296E0,-6.426585846E0,8.977975217E0
1.111938162E1,5.389392700E0,4.104015656E0,-7.255262604E0,9.926093573E0
1.112939862E1,5.907315674E0,4.142335968E0,-7.818241882E0,1.063861983E1
1.113941462E1,5.979615326E0,4.233496399E0,-7.483088837E0,1.047257894E1
1.114943162E1,5.904621277E0,4.468807068E0,-7.153923340E0,1.029628128E1
1.115944862E1,6.029012604E0,4.677473145E0,-6.676116943E0,1.013894893E1
1.116946462E1,6.174510040E0,4.769531708E0,-5.942642212E0,9.807548287E0
1.117948162E1,6.154900818E0,4.711901550E0,-5.552852783E0,9.535145218E0
1.118949862E1,5.668262787E0,4.526437225E0,-5.065316620E0,8.847331204E0
1.119951562E1,5.110821991E0,4.370162201E0,-5.047952728E0,8.408367608E0
1.120953162E1,4.866679688E0,4.375550995E0,-5.320236511E0,8.434152846E0
1.121954862E1,5.186714172E0,4.517306213E0,-5.464686127E0,8.784694291E0
1.122956562E1,5.840704193E0,4.790787506E0,-5.886808319E0,9.577055006E0
1.123958162E1,6.565496979E0,5.126688995E0,-6.781048737E0,1.074110388E1
1.124959862E1,7.167844391E0,5.313500519E0,-7.262447662E0,1.150453941E1
1.125961562E1,7.148534546E0,5.319188690E0,-6.807843018E0,1.121347587E1
1.126963262E1,6.270161133E0,5.112468567E0,-6.267317047E0,1.023384182E1
1.127964862E1,5.146447906E0,4.760400696E0,-5.651198273E0,9.004631184E0
1.128966562E1,4.240980835E0,4.385879517E0,-5.360951843E0,8.121678536E0
1.129968262E1,3.871698761E0,4.180207214E0,-6.170169067E0,8.398521892E0
1.130969962E1,4.467759247E0,4.234693909E0,-7.095245361E0,9.393402574E0
1.131971562E1,5.635630646E0,4.618046722E0,-7.558831329E0,1.049869608E1
1.132973262E1,6.570586395E0,5.030289459E0,-7.486531677E0,1.115905794E1
1.133974962E1,6.982080688E0,5.144501953E0,-6.924450531E0,1.109789918E1
1.134976562E1,7.199877777E0,5.042713623E0,-6.227649536E0,1.077268859E1
1.135978262E1,7.191195831E0,4.963378601E0,-5.601351929E0,1.037899649E1
1.136979962E1,6.776707764E0,4.717290344E0,-5.064418488E0,9.686327009E0
1.137981662E1,6.116580505E0,4.474195862E0,-4.589156799E0,8.859534176E0
1.138983262E1,5.899831238E0,4.397405548E0,-5.048252106E0,8.923566188E0
1.139984962E1,6.334527283E0,4.389172668E0,-6.119125214E0,9.840465740E0
1.140986662E1,6.692283325E0,4.403991852E0,-6.391408997E0,1.024850766E1
1.141988262E1,6.382577362E0,4.564907227E0,-6.607709198E0,1.025853267E1
1.142989963E1,5.681285706E0,4.675377502E0,-6.949298859E0,1.012071720E1
1.143991662E1,5.003046112E0,4.743485870E0,-6.928043060E0,9.773889157E0
1.144993362E1,4.580923920E0,4.780009918E0,-6.926097107E0,9.581449781E0
1.145994962E1,4.557422791E0,4.774471436E0,-7.057673492E0,9.663148302E0
1.146996662E1,4.862787781E0,4.706812134E0,-7.063810730E0,9.782546064E0
1.147998363E1,5.153034210E0,4.625980225E0,-6.781048737E0,9.692062555E0
1.148999962E1,5.129682770E0,4.631518707E0,-6.447242889E0,9.451537004E0
1.150001662E1,4.907694397E0,4.705165558E0,-6.234535217E0,9.224612545E0
1.151003362E1,4.804409180E0,4.755910034E0,-6.292315063E0,9.235488979E0
1.152005062E1,4.881648560E0,4.760400696E0,-6.165379028E0,9.192595173E0
1.153006662E1,5.026846619E0,4.734654236E0,-6.208040314E0,9.285790338E0
1.154008362E1,5.257516937E0,4.673281860E0,-6.827452240E0,9.802813463E0
1.155010063E1,5.643564148E0,4.638105011E0,-7.336543579E0,1.035310128E1
1.156011762E1,6.089935913E0,4.650678864E0,-7.409891052E0,1.065939110E1
1.157013362E1,6.513255615E0,4.673880615E0,-7.386689301E0,1.090095581E1
1.158015062E1,6.647227020E0,4.738845520E0,-7.279362488E0,1.093761410E1
1.159016762E1,6.482120361E0,4.772076416E0,-6.655908966E0,1.044469827E1
1.160018362E1,6.440057831E0,4.785099335E0,-6.160738678E0,1.011564242E1
1.161020062E1,6.464157715E0,4.819228363E0,-6.098917236E0,1.010975214E1
1.162021762E1,6.302493896E0,4.912334747E0,-6.023025055E0,1.000646255E1
1.163023462E1,5.729335785E0,5.016218719E0,-5.884862366E0,9.623894422E0
1.164024954E1,5.273683319E0,5.128335571E0,-6.368057556E0,9.729528176E0
1.165026654E1,5.451812897E0,5.139262848E0,-7.245233459E0,1.042246105E1
1.166028354E1,6.211333466E0,5.029091949E0,-7.831115112E0,1.118922666E1
1.167029954E1,7.204368439E0,4.852908325E0,-7.686066742E0,1.159867517E1
1.168031654E1,8.049061890E0,4.687202911E0,-7.437882843E0,1.191970510E1
1.169033354E1,8.342601471E0,4.697232056E0,-6.778653717E0,1.173086248E1
1.170035054E1,7.883506165E0,4.783901825E0,-5.328319702E0,1.065018202E1
1.171036654E1,6.584657135E0,4.852608948E0,-3.834575958E0,9.033797428E0
1.172038354E1,5.165009308E0,4.805457001E0,-3.151995392E0,7.726888966E0
1.173040054E1,4.500840454E0,4.674629059E0,-3.279530182E0,7.270834879E0
1.174041754E1,4.822222137E0,4.433480530E0,-3.687132568E0,7.516949017E0
1.175043354E1,5.384602661E0,4.281696167E0,-5.120252380E0,8.575771238E0
1.176045054E1,5.978717194E0,4.464166718E0,-6.415508881E0,9.840355581E0
1.177046754E1,6.726112976E0,4.899162140E0,-6.687642975E0,1.067553062E1
1.178048354E1,7.276518402E0,5.287005615E0,-6.146967316E0,1.089428087E1
1.179050054E1,7.145241394E0,5.381908264E0,-6.453978882E0,1.103056003E1
1.180051754E1,6.667135620E0,5.187462616E0,-6.658154297E0,1.075599760E1
1.181053454E1,6.526877289E0,4.905598755E0,-6.150110779E0,1.022198067E1
1.182055054E1,6.952592010E0,4.640050964E0,-5.430407410E0,9.967844965E0
1.183056754E1,7.190746765E0,4.340224457E0,-4.340374146E0,9.454270733E0
1.184058454E1,6.942113800E0,4.037254486E0,-3.649860077E0,8.821215697E0
1.185060054E1,6.877448273E0,3.909420319E0,-3.766168213E0,8.761671358E0
1.186061754E1,7.150630188E0,3.913461914E0,-4.156855774E0,9.150199242E0
1.187063454E1,7.334597626E0,3.913761292E0,-4.352498932E0,9.383927575E0
1.188065154E1,7.197632446E0,3.972888336E0,-4.202510834E0,9.233138788E0
1.189066754E1,6.932982788E0,4.096231842E0,-3.930975494E0,8.960911448E0
1.190068454E1,6.672225037E0,4.199367371E0,-4.048780518E0,8.862612309E0
1.191070154E1,6.409072266E0,4.176764374E0,-4.053570557E0,8.657540193E0
1.192071754E1,6.060746613E0,4.127816162E0,-4.006418610E0,8.356010163E0
1.193073454E1,5.867797852E0,4.108656006E0,-4.163591766E0,8.285384855E0
1.194075154E1,5.770949249E0,4.066144409E0,-4.009562073E0,8.118742120E0
1.195076854E1,5.796695709E0,4.007765808E0,-3.678899689E0,7.949727721E0
1.196078454E1,6.121071167E0,4.062701569E0,-4.039799194E0,8.384094095E0
1.197080154E1,6.693181458E0,4.260739746E0,-4.677173767E0,9.210240803E0
1.198081854E1,7.116351471E0,4.524341583E0,-5.523513794E0,1.008074053E1
1.199083554E1,7.078929291E0,4.803061981E0,-6.350843353E0,1.065428813E1
1.200085154E1,6.709347839E0,5.127736816E0,-6.739135895E0,1.080393382E1
1.201086854E1,6.300248566E0,5.464536438E0,-6.860832825E0,1.079932023E1
1.202088554E1,6.023174744E0,5.649402008E0,-6.711742859E0,1.064151630E1
1.203090154E1,5.917195129E0,5.698200531E0,-6.479875031E0,1.046286136E1
1.204091854E1,6.061644745E0,5.806425476E0,-6.163582764E0,1.041383053E1
1.205093554E1,6.435567169E0,5.714965668E0,-6.128854980E0,1.056599360E1
1.206095254E1,7.739655304E0,5.098397827E0,-7.049440613E0,1.164433500E1
1.207096854E1,9.156309357E0,4.385430450E0,-7.460186462E0,1.259858656E1
1.208098554E1,9.774972839E0,3.788621521E0,-7.757019196E0,1.304128421E1
1.209100254E1,8.915460205E0,3.422782288E0,-7.513475647E0,1.215126271E1
1.210101854E1,6.650071106E0,3.511098633E0,-6.129603424E0,9.701716212E0
1.211103554E1,4.615502014E0,3.770209808E0,-5.535788269E0,8.134020691E0
1.212105254E1,3.913910980E0,4.111799469E0,-6.150859222E0,8.370105328E0
1.213106954E1,4.542304230E0,4.420607300E0,-6.912625122E0,9.378629041E0
1.214108554E1,5.509443054E0,4.618944855E0,-7.379653931E0,1.030281061E1
1.215110254E1,5.837560730E0,4.761897583E0,-7.705226898E0,1.077605240E1
1.216111954E1,5.558540955E0,4.767286377E0,-7.815547485E0,1.071014376E1
1.217113554E1,5.024750977E0,4.589605865E0,-7.660919037E0,1.024706226E1
1.218115254E1,4.439767456E0,4.324058075E0,-7.322472839E0,9.593102824E0
1.219116954E1,4.206851807E0,4.146527252E0,-6.935826874E0,9.110268097E0
1.220118654E1,4.567751312E0,4.106859741E0,-6.898105316E0,9.236585188E0
1.221120254E1,5.166655884E0,4.155658264E0,-6.901997223E0,9.570861732E0
1.222121954E1,5.417983246E0,4.282893677E0,-6.800657959E0,9.692609008E0
1.223123654E1,5.398374023E0,4.414020996E0,-6.701414337E0,9.671348281E0
1.224125254E1,5.564977570E0,4.523443451E0,-6.774312744E0,9.865182672E0
1.225126954E1,5.898933105E0,4.507576447E0,-6.991810455E0,1.019809152E1
1.226128654E1,6.336024170E0,4.413721619E0,-7.282805328E0,1.061439561E1
1.227130354E1,6.738836517E0,4.277953949E0,-7.262297974E0,1.079137523E1
1.228131954E1,6.982080688E0,4.215234375E0,-7.164551239E0,1.085580241E1
1.229133654E1,6.979835358E0,4.239334259E0,-6.996001740E0,1.075332957E1
1.230135354E1,6.565796356E0,4.283492432E0,-6.433172150E0,1.014118795E1
1.231136954E1,6.112089844E0,4.330195312E0,-5.710175629E0,9.418828983E0
1.232138654E1,5.864654388E0,4.279450836E0,-5.056035919E0,8.847110815E0
1.233140354E1,5.844296722E0,4.240980835E0,-5.020410004E0,8.794671070E0
1.234142054E1,6.079457703E0,4.277804260E0,-5.507347412E0,9.251502082E0
1.235143654E1,6.544241180E0,4.443359985E0,-6.286327515E0,1.010388313E1
1.236145354E1,6.967860260E0,4.713248749E0,-6.766828308E0,1.079609910E1
1.237147054E1,6.944658508E0,4.932542725E0,-6.709048462E0,1.084295120E1
1.238148754E1,6.585405579E0,5.185816040E0,-6.251599731E0,1.045670856E1
1.239150354E1,6.539301453E0,5.405559082E0,-5.711522827E0,1.022761094E1
1.240152054E1,6.944658508E0,5.469625854E0,-4.516408081E0,9.926884241E0
1.241153754E1,7.228468323E0,5.220543823E0,-4.129313049E0,9.826294233E0
1.242155354E1,6.844965820E0,4.781357117E0,-4.776267700E0,9.619130215E0
1.243157054E1,6.313720551E0,4.419260101E0,-4.892575836E0,9.128539059E0
1.244158754E1,5.784421234E0,4.114793243E0,-4.656965790E0,8.489898870E0
1.245160454E1,5.533692627E0,3.906875610E0,-4.865931244E0,8.340426727E0
1.246162054E1,5.714366913E0,3.941004639E0,-6.032305756E0,9.196424278E0
1.247163754E1,6.107150116E0,4.082759857E0,-6.674470367E0,9.925460457E0
1.248165454E1,6.523284760E0,4.259542236E0,-6.121220856E0,9.907890234E0
1.249167054E1,6.974147186E0,4.427642670E0,-5.404810638E0,9.871916056E0
1.250168754E1,7.421417084E0,4.580175476E0,-5.194947052E0,1.015100556E1
1.251170454E1,7.599247284E0,4.577481079E0,-4.917723541E0,1.014326856E1
1.252172154E1,7.537425842E0,4.440216522E0,-4.316573639E0,9.755056077E0
1.253173754E1,7.329957275E0,4.218228149E0,-4.015250244E0,9.361835125E0
1.254175454E1,7.058721313E0,3.943549347E0,-4.165687408E0,9.095607710E0
1.255177154E1,6.944658508E0,3.756588135E0,-4.509223022E0,9.092487475E0
1.256178754E1,6.739435272E0,3.678001556E0,-4.288282471E0,8.794148611E0
1.257180454E1,6.365812225E0,3.698658600E0,-4.057163086E0,8.406200868E0
1.258182154E1,6.081403656E0,3.754941559E0,-3.958368530E0,8.170173680E0
1.259183854E1,6.107000427E0,3.851490784E0,-4.093836823E0,8.299935867E0
1.260185454E1,6.311774597E0,4.017196198E0,-4.287833405E0,8.623333413E0
1.261187154E1,6.464756470E0,4.151466980E0,-4.679269409E0,8.995738797E0
1.262188854E1,6.426735535E0,4.291875000E0,-5.123545532E0,9.272207907E0
1.263190454E1,6.329138489E0,4.481829987E0,-5.534740448E0,9.527756602E0
1.264192163E1,6.193071442E0,4.651726685E0,-6.165229340E0,9.899633722E0
1.265193862E1,5.947881317E0,4.785698090E0,-6.707551575E0,1.016225597E1
1.266195562E1,5.564079437E0,4.913532257E0,-6.968159637E0,1.018120955E1
1.267197162E1,5.056634674E0,5.168152771E0,-6.806046753E0,9.929835331E0
1.268198862E1,4.686753845E0,5.528603210E0,-5.826034698E0,9.299128743E0
1.269200562E1,5.433850250E0,5.590873718E0,-6.346951447E0,1.005327758E1
1.270202162E1,7.667505341E0,5.085674286E0,-7.619604950E0,1.194625886E1
1.271203862E1,9.854307861E0,4.366270294E0,-7.860903168E0,1.334037100E1
1.272205562E1,1.044258453E1,3.680097198E0,-7.633675690E0,1.344855723E1
1.273207262E1,8.842262421E0,3.377576294E0,-6.453829193E0,1.145624448E1
1.274208862E1,6.447242889E0,3.496429138E0,-5.266947327E0,9.029545489E0
1.275210562E1,4.915627899E0,3.715124359E0,-5.288053436E0,8.119670916E0
1.276212263E1,4.471651154E0,4.064198456E0,-6.040987701E0,8.544407852E0
1.277213962E1,4.754862213E0,4.416715393E0,-6.861880646E0,9.444654336E0
1.278215562E1,5.283413086E0,4.579576721E0,-7.430997162E0,1.020326887E1
1.279217262E1,5.812562714E0,4.638853455E0,-7.825576630E0,1.079557763E1
1.280218962E1,6.276897125E0,4.577930145E0,-8.227191467E0,1.131563349E1
1.281220562E1,6.393354950E0,4.439767456E0,-8.430468750E0,1.147428978E1
1.282222262E1,5.842051392E0,4.363875275E0,-8.325536957E0,1.106740880E1
1.283223962E1,5.181924133E0,4.375550995E0,-7.686216431E0,1.025064424E1
1.284225662E1,5.002447357E0,4.498894501E0,-6.990912323E0,9.702442290E0
1.285227262E1,5.142556000E0,4.596491547E0,-6.506220245E0,9.481799335E0
1.286228962E1,5.187462616E0,4.521198120E0,-6.036347351E0,9.153605310E0
1.287230662E1,5.217550049E0,4.399650879E0,-5.973478088E0,9.069850982E0
1.288232262E1,5.541177063E0,4.271667023E0,-6.468348999E0,9.528447994E0
1.289233962E1,5.926026764E0,4.168232117E0,-7.140002289E0,1.017209835E1
1.290235662E1,6.070476379E0,4.073479156E0,-7.536677399E0,1.049978200E1
1.291237362E1,6.059399414E0,3.978426819E0,-7.522456970E0,1.044660519E1
1.292238962E1,6.030808868E0,3.979624329E0,-7.450007629E0,1.037837555E1
1.293240662E1,6.031856689E0,4.067042542E0,-7.395670624E0,1.037400955E1
1.294242362E1,6.050118713E0,4.178261261E0,-7.108268280E0,1.022689012E1
1.295243962E1,6.027964783E0,4.296515350E0,-6.658004608E0,9.956175417E0
1.296245662E1,5.965394897E0,4.281247101E0,-6.358028412E0,9.712854282E0
1.297247362E1,6.102958832E0,4.193080444E0,-6.187532959E0,9.649538550E0
1.298249062E1,6.475833435E0,4.142934723E0,-6.113137665E0,9.821953925E0
1.299250662E1,6.998097382E0,4.069886627E0,-6.305337982E0,1.026131722E1
1.300252362E1,7.680228882E0,4.048331451E0,-6.447242889E0,1.081396523E1
1.301254062E1,8.189320221E0,4.098626862E0,-6.493496704E0,1.122627308E1
1.302255662E1,8.695417786E0,4.349355469E0,-6.878945160E0,1.190995676E1
1.303257362E1,9.077872467E0,4.757855988E0,-7.152426453E0,1.249808651E1
1.304259062E1,8.597671051E0,5.292095032E0,-7.367529144E0,1.249826800E1
1.305260762E1,7.282955017E0,5.730084229E0,-6.587650909E0,1.136980402E1
1.306262362E1,5.216951294E0,5.630990295E0,-4.189936981E0,8.745296131E0
1.307264062E1,3.403322754E0,5.087021484E0,-2.396067352E0,6.572787240E0
1.308265762E1,3.494034119E0,4.580774231E0,-3.008593597E0,6.499492473E0
1.309267362E1,5.449567566E0,4.348157959E0,-5.105283508E0,8.641075396E0
1.310269063E1,7.524253235E0,4.336182861E0,-6.643335114E0,1.093392747E1
1.311270762E1,7.735763397E0,4.136498108E0,-7.237898712E0,1.137276702E1
1.312272462E1,6.063740387E0,3.758833466E0,-6.447093201E0,9.615757237E0
1.313274062E1,4.638105011E0,3.600612488E0,-5.254223785E0,7.879295398E0
1.314275762E1,4.578229523E0,3.789669342E0,-4.789140930E0,7.632669922E0
1.315277462E1,5.548811188E0,4.122577057E0,-4.192182312E0,8.084512337E0
1.316279062E1,6.842720490E0,4.355941772E0,-3.563040619E0,8.859588640E0
1.317280762E1,7.688611450E0,4.379592590E0,-4.007466431E0,9.713668951E0
1.318282462E1,7.926766205E0,4.199067993E0,-4.477039948E0,1.002545167E1
1.319284162E1,8.096213837E0,4.085903320E0,-4.357288971E0,1.006127485E1
1.320285762E1,8.018525391E0,4.035308533E0,-3.989054718E0,9.823086172E0
1.321287462E1,7.632178802E0,3.972139893E0,-3.879482574E0,9.438137191E0
1.322289163E1,7.037465515E0,3.872896271E0,-3.697311401E0,8.842813919E0
1.323290762E1,6.551875305E0,3.762126617E0,-3.582200775E0,8.361389184E0
1.324292462E1,6.394253082E0,3.794309692E0,-3.634142761E0,8.275883767E0
1.325294162E1,6.323600006E0,3.943100281E0,-3.702550507E0,8.321348275E0
1.326295862E1,6.137087860E0,4.129163361E0,-4.419858856E0,8.616785350E0
1.327297462E1,5.958509216E0,4.371659088E0,-5.467230835E0,9.192706254E0
1.328299162E1,5.820346527E0,4.652924194E0,-6.301146698E0,9.758616037E0
1.329300862E1,5.651347961E0,4.953050079E0,-6.969057770E0,1.024881481E1
1.330302562E1,5.552703094E0,5.302573242E0,-7.009324036E0,1.039617324E1
1.331304162E1,5.430856476E0,5.547613678E0,-6.274651794E0,9.982057640E0
1.332305862E1,5.264252930E0,5.533243561E0,-5.901627502E0,9.651857354E0
1.333307562E1,5.785019989E0,5.246589661E0,-6.581513672E0,1.021320134E1
1.334309162E1,6.768025818E0,4.861739960E0,-7.068451080E0,1.092729105E1
1.335310862E1,7.828720093E0,4.433630219E0,-7.502698059E0,1.171479464E1
1.336312562E1,8.696166229E0,4.182452545E0,-7.620353394E0,1.229577172E1
1.337314262E1,9.230554962E0,4.033212891E0,-6.733896790E0,1.211673707E1
1.338315862E1,9.065747681E0,3.827390900E0,-5.382357330E0,1.121634845E1
1.339317562E1,7.509733429E0,3.834276581E0,-4.776417389E0,9.690817104E0
1.340319262E1,5.622907104E0,3.957021332E0,-4.719086609E0,8.339357322E0
1.341320862E1,4.351600800E0,4.168232117E0,-5.089715881E0,7.887699047E0
1.342322562E1,4.094734955E0,4.372706909E0,-6.031557312E0,8.501006039E0
1.343324262E1,5.132676544E0,4.507127380E0,-7.130721588E0,9.874500296E0
1.344325962E1,6.842870178E0,4.619244232E0,-8.265811157E0,1.168271902E1
1.345327562E1,7.759414215E0,4.775668945E0,-9.191186829E0,1.294192560E1
1.346329262E1,6.932533722E0,4.898413696E0,-9.041947174E0,1.240206794E1
1.347330962E1,4.833598480E0,4.912334747E0,-7.672594757E0,1.031326414E1
1.348332562E1,3.042572937E0,4.886288910E0,-6.612349548E0,8.766768842E0
1.349334262E1,2.675236816E0,4.843328247E0,-6.882238312E0,8.830624254E0
1.350335962E1,3.856280823E0,4.740342407E0,-7.543263702E0,9.707861516E0
1.351337662E1,5.409450989E0,4.536466370E0,-7.795040131E0,1.051685969E1
1.352339262E1,6.425388336E0,4.301305389E0,-7.734116821E0,1.093633423E1
1.353340962E1,6.921456757E0,4.050427094E0,-7.628436584E0,1.106822334E1
1.354342662E1,6.937772827E0,3.880530396E0,-7.414381714E0,1.087033873E1
1.355344262E1,6.533463593E0,3.875890045E0,-6.863227844E0,1.023780087E1
1.356345963E1,6.030509491E0,4.039200439E0,-6.248156891E0,9.577142029E0
1.357347662E1,5.569617920E0,4.257596283E0,-5.887257385E0,9.154647421E0
1.358349362E1,5.246140594E0,4.380341034E0,-5.760171661E0,8.938062222E0
1.359350962E1,5.253774719E0,4.432283020E0,-5.851631470E0,9.027118722E0
1.360352662E1,5.647755432E0,4.372257843E0,-6.246510315E0,9.488554747E0
1.361354362E1,6.368955688E0,4.214036865E0,-6.740183716E0,1.018586176E1
1.362355962E1,7.094496918E0,4.046684875E0,-6.977290649E0,1.074197979E1
1.363357667E1,7.662715302E0,3.991000671E0,-7.092101898E0,1.117779949E1
1.364359367E1,7.987839203E0,4.100572815E0,-7.158264313E0,1.148307539E1
1.365361067E1,7.833360443E0,4.338727570E0,-7.095395050E0,1.142500432E1
1.366362667E1,7.347919922E0,4.571942596E0,-6.534960480E0,1.084436696E1
1.367364367E1,6.597230988E0,4.785249023E0,-5.515131226E0,9.840667526E0
1.368366067E1,5.729485474E0,4.978197784E0,-5.018913116E0,9.099392609E0
1.369367667E1,5.439089355E0,5.099445648E0,-5.175188141E0,9.075825650E0
1.370369367E1,5.870192871E0,5.197940826E0,-5.797444153E0,9.751313341E0
1.371371067E1,6.586453400E0,5.226381683E0,-6.822811890E0,1.082807443E1
1.372372767E1,7.137008514E0,5.148244171E0,-7.482340393E0,1.155104871E1
1.373374367E1,7.031927032E0,4.975802765E0,-6.849755859E0,1.100571516E1
1.374376067E1,6.213129730E0,4.662953339E0,-5.844446411E0,9.721299745E0
1.375377767E1,5.713618469E0,4.314178619E0,-5.355712738E0,8.940986081E0
1.376379367E1,6.080655212E0,4.120182037E0,-4.919070740E0,8.840108867E0
1.377381067E1,6.616690521E0,4.252506866E0,-5.279371490E0,9.472917789E0
1.378382767E1,6.503376160E0,4.410428467E0,-6.124064941E0,9.962427021E0
1.379384467E1,5.851332092E0,4.322112122E0,-5.309907990E0,9.006323518E0
1.380386067E1,5.237159271E0,4.069437561E0,-3.174598389E0,7.352974515E0
1.381387767E1,5.375771027E0,3.830384674E0,-1.421593781E0,6.752161858E0
1.382389467E1,6.246360626E0,3.797004089E0,-1.021924896E0,7.380961429E0
1.383391067E1,7.518864441E0,4.086502075E0,-2.563119965E0,8.933219221E0
1.384392767E1,8.670270081E0,4.515060883E0,-4.313729553E0,1.068492493E1
1.385394467E1,9.143885193E0,4.703668671E0,-4.489464111E0,1.122009017E1
1.386396167E1,8.737929382E0,4.530179443E0,-3.700454865E0,1.051509876E1
1.387397767E1,7.853119354E0,4.221221924E0,-3.422782288E0,9.550164224E0
1.388399467E1,7.521858215E0,4.079766083E0,-3.654650116E0,9.304800362E0
1.389401167E1,8.108338623E0,4.190386047E0,-3.809278564E0,9.890151345E0
1.390402767E1,8.643924866E0,4.279001770E0,-3.728147278E0,1.034052104E1
1.391404467E1,8.375532990E0,4.073778534E0,-3.657643890E0,1.000617725E1
1.392406167E1,7.622898102E0,3.741619263E0,-3.558999023E0,9.207321230E0
1.393407867E1,6.926995239E0,3.494183807E0,-3.567680969E0,8.539375330E0
1.394409467E1,6.555916901E0,3.415447540E0,-3.964805145E0,8.388385312E0
1.395411167E1,6.511908417E0,3.449576569E0,-4.189338226E0,8.476737846E0
1.396412867E1,6.440506897E0,3.523971863E0,-3.562292175E0,8.160173547E0
1.397414467E1,6.095324707E0,3.625460815E0,-3.216062164E0,7.787169271E0
1.398416167E1,5.777236176E0,3.851191406E0,-4.548591156E0,8.300470744E0
1.399417867E1,5.681136017E0,4.174668732E0,-5.878725128E0,9.179464832E0
1.400419567E1,5.720354462E0,4.597239990E0,-6.599626007E0,9.869758565E0
1.401421167E1,5.878126373E0,5.066364441E0,-6.908882904E0,1.039004722E1
1.402422867E1,6.085295563E0,5.411247253E0,-6.729256439E0,1.056386819E1
1.403424567E1,6.264922028E0,5.538782043E0,-6.347250824E0,1.049833070E1
1.404426167E1,6.407874756E0,5.452561340E0,-6.138734436E0,1.041514976E1
1.405427867E1,6.758745117E0,5.264402618E0,-6.133944397E0,1.053659548E1
1.406429567E1,7.406897278E0,4.930746460E0,-6.140081635E0,1.081087371E1
1.407431267E1,8.053552551E0,4.473148041E0,-6.004763031E0,1.099663317E1
1.408432867E1,8.206983490E0,4.040397949E0,-5.861211548E0,1.086430828E1
1.409434567E1,7.859106903E0,3.757486267E0,-5.816604309E0,1.047459546E1
1.410436267E1,7.298672333E0,3.639531555E0,-5.903274078E0,1.006804115E1
1.411437867E1,6.820416870E0,3.758833466E0,-6.337221680E0,1.004028356E1
1.412439567E1,6.565347290E0,4.087250519E0,-6.894063721E0,1.036038206E1
1.413441267E1,6.390361176E0,4.435276794E0,-7.100334778E0,1.053200599E1
1.414442967E1,6.113287354E0,4.723577271E0,-6.968159637E0,1.040383166E1
1.415444567E1,5.667813721E0,4.864883423E0,-7.111561432E0,1.031336556E1
1.416446267E1,5.293741608E0,4.896018677E0,-7.278015289E0,1.024520403E1
1.417447967E1,5.006638641E0,4.767735443E0,-7.301815796E0,1.005555795E1
1.418449567E1,4.925657043E0,4.581822052E0,-7.484136658E0,1.006317505E1
1.419451267E1,5.203030243E0,4.330494690E0,-7.713609467E0,1.026277151E1
1.420452967E1,5.760321350E0,4.128863983E0,-7.821834412E0,1.055508946E1
1.421454667E1,6.252198486E0,4.082759857E0,-8.010142822E0,1.095085851E1
1.422456267E1,6.623875580E0,4.199517059E0,-7.795638885E0,1.105819410E1
1.423457967E1,6.684349823E0,4.335883484E0,-7.185058594E0,1.072872244E1
1.424459667E1,6.418352966E0,4.388873291E0,-6.583010559E0,1.018790909E1
1.425461267E1,6.228996735E0,4.409230957E0,-6.199657745E0,9.832470397E0
1.426462967E1,6.137985992E0,4.433480530E0,-6.105503540E0,9.726653851E0
1.427464667E1,6.159391479E0,4.464166718E0,-6.111191711E0,9.757743182E0
1.428466367E1,6.383475494E0,4.493056641E0,-6.333030396E0,1.005204414E1
1.429467967E1,6.820566559E0,4.545747070E0,-6.844217377E0,1.067835456E1
1.430469667E1,7.420968018E0,4.583917694E0,-7.578290863E0,1.155480680E1
1.431471367E1,7.881410522E0,4.610262909E0,-7.978558502E0,1.212553305E1
1.432472967E1,7.970175934E0,4.678970032E0,-7.911797333E0,1.216605943E1
1.433474667E1,7.566315765E0,4.806205444E0,-7.455546112E0,1.165906998E1
1.434476367E1,6.466403046E0,4.835095367E0,-6.591842194E0,1.042328639E1
1.435478067E1,5.006039886E0,4.796475677E0,-5.707032166E0,8.979801245E0
1.436479667E1,3.888613586E0,4.751269684E0,-5.162763977E0,8.021845867E0
1.437481367E1,3.701802063E0,4.654570770E0,-4.981191559E0,7.757617992E0
1.438483067E1,4.572541351E0,4.444707184E0,-5.369334412E0,8.336264654E0
1.439484667E1,6.212231598E0,4.396507416E0,-6.084996185E0,9.744140673E0
1.440486367E1,7.866741028E0,4.549339600E0,-6.921606445E0,1.142325440E1
1.441488067E1,8.427924042E0,4.705764313E0,-7.350913696E0,1.213301502E1
1.442489767E1,7.477550354E0,4.668342133E0,-6.367608490E0,1.087444782E1
1.443491367E1,5.696104889E0,4.444258118E0,-4.632716217E0,8.582488023E0
1.444493067E1,4.365372162E0,4.270020447E0,-3.761527863E0,7.172073660E0
1.445494767E1,4.139042816E0,4.100572815E0,-3.184328156E0,6.639752906E0
1.446496367E1,4.933291168E0,3.863914948E0,-2.899620209E0,6.904708381E0
1.447498067E1,6.461014252E0,3.811823273E0,-3.787274323E0,8.403460514E0
1.448499767E1,7.869585114E0,3.902534637E0,-5.072351990E0,1.014341664E1
1.449501467E1,8.440348206E0,3.924688568E0,-5.333259430E0,1.072782897E1
1.450503067E1,8.308472443E0,3.953877869E0,-4.535418549E0,1.025835688E1
1.451504767E1,7.910450134E0,4.024980011E0,-3.530408478E0,9.551935376E0
1.452506467E1,7.493866425E0,4.018992462E0,-2.830763397E0,8.962340978E0
1.453508067E1,7.426506500E0,4.015100555E0,-3.013533325E0,8.964118159E0
1.454509767E1,7.820038147E0,4.163442078E0,-4.001478882E0,9.721063717E0
1.455511467E1,8.156538391E0,4.341721344E0,-4.764891357E0,1.039633841E1
1.456513167E1,8.030201111E0,4.442611542E0,-4.716990967E0,1.031847523E1
1.457514767E1,7.655230865E0,4.431235199E0,-4.486320648E0,9.917937182E0
1.458516467E1,7.435038757E0,4.438420258E0,-4.533771973E0,9.774173316E0
1.459518167E1,7.179520111E0,4.504882050E0,-4.978197784E0,9.829645186E0
1.460519767E1,6.849306793E0,4.573888550E0,-5.301375732E0,9.794796816E0
1.461521467E1,6.495292969E0,4.591701508E0,-5.053042145E0,9.423682316E0
1.462523167E1,6.026617584E0,4.510570221E0,-4.107757874E0,8.575490538E0
1.463524879E1,5.564079437E0,4.374203796E0,-3.443738708E0,7.870957701E0
1.464526479E1,5.327571259E0,4.235142975E0,-3.851640472E0,7.820139760E0
1.465528179E1,5.349575500E0,4.186793518E0,-4.755610657E0,8.292347720E0
1.466529879E1,5.498066711E0,4.338278503E0,-5.918242950E0,9.169241929E0
1.467531479E1,5.615272980E0,4.673581238E0,-6.747668152E0,9.945083092E0
1.468533179E1,5.569468231E0,5.083428955E0,-7.004234619E0,1.029172138E1
1.469534879E1,5.335205383E0,5.375172272E0,-7.025490417E0,1.033026665E1
1.470536579E1,4.987328796E0,5.499413910E0,-6.643335114E0,9.962474758E0
1.471538179E1,4.712949371E0,5.472170563E0,-6.117778015E0,9.464869269E0
1.472539879E1,4.742438049E0,5.277575226E0,-5.753136292E0,9.134664532E0
1.473541579E1,5.144501953E0,4.912634125E0,-5.652844849E0,9.085952304E0
1.474543179E1,5.911357269E0,4.500990143E0,-5.889802094E0,9.481182718E0
1.475544879E1,6.742878113E0,4.272714844E0,-6.388564911E0,1.022429748E1
1.476546579E1,7.256310425E0,4.230352936E0,-7.119644623E0,1.101087038E1
1.477548279E1,7.229965210E0,4.248165894E0,-7.766748962E0,1.142986001E1
1.478549879E1,6.916816406E0,4.295467529E0,-7.735913086E0,1.123110599E1
1.479551579E1,6.636748810E0,4.389472046E0,-7.127578125E0,1.068252168E1
1.480553279E1,6.608457642E0,4.420158234E0,-6.548582153E0,1.030016696E1
1.481554879E1,6.857839050E0,4.453389130E0,-6.677314453E0,1.055694840E1
1.482556579E1,7.054979095E0,4.527185669E0,-7.025640106E0,1.093744756E1
1.483558279E1,6.695127411E0,4.723726959E0,-6.964866486E0,1.075396172E1
1.484559979E1,5.689219208E0,4.823120270E0,-6.619384918E0,9.972259575E0
1.485561579E1,4.573439484E0,4.787344666E0,-6.529122620E0,9.298626772E0
1.486563279E1,4.185446320E0,4.678820343E0,-7.056176605E0,9.444519521E0
1.487564979E1,4.885091400E0,4.573589172E0,-8.028853912E0,1.045200129E1
1.488566579E1,5.745651855E0,4.402195587E0,-8.287216644E0,1.100317231E1
1.489568279E1,5.988446960E0,4.276906128E0,-7.983797607E0,1.085792095E1
1.490569979E1,5.684129791E0,4.355043640E0,-7.735464020E0,1.054102178E1
1.491571679E1,5.174140320E0,4.554129639E0,-7.311844940E0,1.004862683E1
1.492573279E1,4.799020386E0,4.826862488E0,-7.056925049E0,9.804559617E0
1.493574979E1,4.794080658E0,4.993615723E0,-7.125482483E0,9.934380099E0
1.494576679E1,5.073998566E0,4.914580078E0,-7.076384583E0,9.998688791E0
1.495578279E1,5.580545197E0,4.657863922E0,-7.143145752E0,1.019130572E1
1.496579979E1,6.036796417E0,4.425696716E0,-7.397766266E0,1.052409845E1
1.497581679E1,6.293213196E0,4.309687958E0,-7.528743896E0,1.071727238E1
1.498583379E1,6.700665894E0,4.212989044E0,-7.656727753E0,1.101243297E1
1.499584979E1,7.461982727E0,4.125271454E0,-7.616760864E0,1.143302658E1
1.500586679E1,8.161777496E0,4.175716553E0,-7.348518677E0,1.174955094E1
1.501588379E1,8.608897705E0,4.509971466E0,-7.431446228E0,1.223435145E1
1.502589979E1,8.766669617E0,4.954097900E0,-7.475454712E0,1.254113254E1
1.503591679E1,8.126450958E0,5.230872345E0,-6.813531189E0,1.182478067E1
1.504593379E1,6.719975739E0,5.375621338E0,-5.963149567E0,1.046969586E1
1.505595079E1,5.461243286E0,5.395679626E0,-5.251828766E0,9.301625785E0
1.506596679E1,4.913382568E0,5.291047211E0,-5.492827606E0,9.072357134E0
1.507598379E1,5.213658142E0,5.223836975E0,-6.653663635E0,9.936898094E0
1.508600079E1,5.783822479E0,5.162015533E0,-7.413034515E0,1.072623362E1
1.509601679E1,5.827531586E0,4.968018951E0,-7.156468048E0,1.048123903E1
1.510603379E1,5.185666351E0,4.592749329E0,-6.401138763E0,9.431811033E0
1.511605079E1,4.458029480E0,4.264931030E0,-5.943989410E0,8.567069140E0
1.512606779E1,4.268972626E0,4.072131958E0,-5.953569489E0,8.381609369E0
1.513608379E1,4.427043915E0,4.052373047E0,-5.439089355E0,8.099638149E0
1.514610079E1,4.587210846E0,4.211641846E0,-4.486021271E0,7.674947376E0
1.515611779E1,4.978197784E0,4.450545044E0,-4.138294373E0,7.855907629E0
1.516613379E1,5.768404541E0,4.666695557E0,-4.457281036E0,8.655627800E0
1.517615079E1,6.742578735E0,4.752916260E0,-4.746479645E0,9.517439256E0
1.518616779E1,6.798861694E0,4.397555237E0,-4.355193329E0,9.194059024E0
1.519618479E1,7.955656128E0,3.945195923E0,-3.641926575E0,9.597951056E0
1.520620079E1,9.848020935E0,3.931274872E0,-3.640729065E0,1.121130441E1
1.521621779E1,1.055245605E1,3.813469849E0,-3.377725983E0,1.171776062E1
1.522623479E1,9.700577545E0,3.542682953E0,-2.799179077E0,1.069986966E1
1.523625079E1,8.486452332E0,3.416195984E0,-2.430346069E0,9.465561272E0
1.524626779E1,7.998766479E0,3.516786804E0,-2.687960358E0,9.141837097E0
1.525628479E1,8.251590729E0,3.736380157E0,-3.185974731E0,9.602068591E0
1.526630179E1,8.363258514E0,4.023483124E0,-3.603905640E0,9.955935179E0
1.527631779E1,7.982300720E0,4.287983093E0,-4.346511383E0,1.004968084E1
1.528633479E1,7.392527161E0,4.499942322E0,-5.009333038E0,9.999617803E0
1.529635179E1,6.768624573E0,4.530478821E0,-5.105133820E0,9.612591132E0
1.530636779E1,6.280190277E0,4.380640411E0,-4.893024902E0,9.086940796E0
1.531638479E1,5.986201630E0,4.244723053E0,-4.565955048E0,8.642929436E0
1.532640179E1,6.118227081E0,4.149820404E0,-4.211342468E0,8.508179440E0
1.533641879E1,6.458170166E0,4.138593750E0,-3.696413269E0,8.514657432E0
1.534643479E1,6.665638733E0,4.154011688E0,-3.366948395E0,8.545343429E0
1.535645179E1,6.757996674E0,4.201313324E0,-3.052901459E0,8.523013552E0
1.536646879E1,6.810088348E0,4.367318115E0,-3.612437897E0,8.860049570E0
1.537648479E1,6.527326355E0,4.550537109E0,-3.860172729E0,8.843885505E0
1.538650179E1,5.762716370E0,4.677772522E0,-4.175417175E0,8.516135527E0
1.539651879E1,4.986280975E0,4.787194977E0,-5.098697205E0,8.589350784E0
1.540653479E1,4.134701843E0,4.904401245E0,-5.372477875E0,8.367343032E0
1.541655179E1,3.129991150E0,5.129383392E0,-5.400769043E0,8.079339381E0
1.542656879E1,2.499202881E0,5.523962860E0,-6.080355835E0,8.586670356E0
1.543658579E1,2.767594757E0,6.029611359E0,-6.927144928E0,9.591721990E0
1.544660179E1,4.116290131E0,6.401737518E0,-7.664810944E0,1.080163944E1
1.545661879E1,6.113736420E0,6.370153198E0,-8.371641083E0,1.216721000E1
1.546663579E1,8.012687531E0,5.980513458E0,-8.167465668E0,1.291035236E1
1.547665279E1,8.863667908E0,5.488935699E0,-7.611372070E0,1.290836971E1
1.548666879E1,8.788823547E0,4.882546692E0,-6.906188507E0,1.219746372E1
1.549668579E1,7.921676788E0,4.456682281E0,-5.843847656E0,1.080581027E1
1.550670279E1,6.387068024E0,4.225413208E0,-4.656067657E0,8.962573333E0
1.551671879E1,4.885091400E0,4.043092346E0,-3.537144470E0,7.260998878E0
1.552673579E1,3.936214600E0,3.984564056E0,-3.608995056E0,6.662985923E0
1.553675279E1,4.439767456E0,4.015998688E0,-4.937931519E0,7.760344593E0
1.554676979E1,6.395450592E0,4.132606201E0,-6.468348999E0,9.990983989E0
1.555678579E1,8.249046021E0,4.330794067E0,-7.892786865E0,1.221059466E1
1.556680279E1,8.908873901E0,4.620591431E0,-8.929680634E0,1.343343201E1
1.557681979E1,8.177345123E0,4.970863037E0,-8.740923157E0,1.296079435E1
1.558683579E1,6.668333130E0,5.231321411E0,-7.638765106E0,1.140982571E1
1.559685279E1,5.470673676E0,5.335205383E0,-6.790179749E0,1.022248639E1
1.560686979E1,4.915328522E0,5.383405151E0,-6.790479126E0,9.962535433E0
1.561688579E1,4.709955597E0,5.414839783E0,-7.026238861E0,1.004351553E1
1.562690279E1,4.481530609E0,5.329517212E0,-6.711293793E0,9.671056544E0
1.563692000E1,4.490960999E0,4.954696655E0,-5.950126648E0,8.951075732E0
1.564693700E1,4.968318329E0,4.634362793E0,-6.511309662E0,9.410561037E0
1.565695300E1,5.971831512E0,4.487368469E0,-7.736511841E0,1.075420210E1
1.566697000E1,6.995702362E0,4.359683990E0,-8.202642517E0,1.162884518E1
1.567698700E1,7.774233398E0,4.311035156E0,-7.859406281E0,1.186566459E1
1.568700300E1,8.446784821E0,4.336182861E0,-7.108717346E0,1.186105046E1
1.569702000E1,9.135802002E0,4.460873566E0,-6.483766937E0,1.205825464E1
1.570703700E1,9.747579803E0,4.808001709E0,-5.849535828E0,1.234298432E1
1.571705400E1,9.705966339E0,5.298082581E0,-5.622308350E0,1.240507206E1
1.572707000E1,9.177565155E0,5.606291656E0,-5.835465088E0,1.223563897E1
1.573708700E1,7.722291412E0,5.752986603E0,-6.168672180E0,1.143604634E1
1.574710400E1,5.876629486E0,5.631589050E0,-5.920039215E0,1.006461294E1
1.575712000E1,4.385131073E0,5.263055420E0,-5.142705688E0,8.566011247E0
1.576713700E1,4.120780792E0,4.826862488E0,-4.944517822E0,8.045352218E0
1.577715400E1,5.143753510E0,4.441114655E0,-5.970783691E0,9.046101781E0
1.578717100E1,6.441255341E0,4.252806244E0,-8.021668854E0,1.113208437E1
1.579718700E1,6.957082672E0,4.179309082E0,-9.173373871E0,1.224820035E1
1.580720400E1,5.825435944E0,3.970493317E0,-7.901917877E0,1.058965662E1
1.581722100E1,3.692371674E0,3.655398560E0,-5.646408234E0,7.673165784E0
1.582723700E1,2.105072479E0,3.593726807E0,-4.842280426E0,6.387008864E0
1.583725400E1,2.272873535E0,3.887565765E0,-5.261708221E0,6.925654850E0
1.584727100E1,4.190535736E0,4.396507416E0,-5.561834106E0,8.235524624E0
1.585728800E1,6.543792114E0,4.873565369E0,-4.940625916E0,9.538482011E0
1.586730400E1,8.546178131E0,5.098846893E0,-4.457879791E0,1.090449873E1
1.587732100E1,9.358538818E0,4.944368134E0,-4.371359711E0,1.145154185E1
1.588733800E1,8.908275146E0,4.564458160E0,-3.864214325E0,1.072957579E1
1.589735400E1,7.982450409E0,4.171375580E0,-3.169958038E0,9.548220919E0
1.590737100E1,7.275470581E0,3.951632538E0,-3.180885315E0,8.869380095E0
1.591738800E1,7.021448822E0,3.938609619E0,-3.528612213E0,8.790022380E0
1.592740500E1,6.930138702E0,3.975283356E0,-3.467389526E0,8.709333518E0
1.593742100E1,6.953789520E0,4.083807678E0,-3.587140503E0,8.826111875E0
1.594743800E1,7.229665833E0,4.315376129E0,-4.085753632E0,9.358628207E0
1.595745500E1,7.691156158E0,4.555327148E0,-4.488266602E0,1.000247097E1
1.596747100E1,7.813002777E0,4.665348358E0,-4.453688507E0,1.013132908E1
1.597748800E1,7.441924438E0,4.657863922E0,-4.922363892E0,1.006516776E1
1.598750500E1,6.777007141E0,4.696932678E0,-5.060077515E0,9.674367516E0
1.599752200E1,5.852230225E0,4.732708282E0,-4.819378052E0,8.937199287E0
1.600753800E1,4.750371552E0,4.760849762E0,-4.946463776E0,8.348606124E0
1.601755500E1,3.607647858E0,4.796475677E0,-5.142106934E0,7.903326243E0
1.602757200E1,2.803969116E0,4.991969147E0,-5.832171936E0,8.172895953E0
1.603758800E1,2.680026855E0,5.323529663E0,-6.603368225E0,8.895334954E0
1.604760500E1,3.500321045E0,5.742358704E0,-7.477550354E0,1.005687278E1
1.605762200E1,5.203329620E0,6.079457703E0,-8.419840851E0,1.161585834E1
1.606763800E1,7.192692719E0,6.095773773E0,-9.130862274E0,1.312501171E1
1.607765500E1,8.835227051E0,5.774092712E0,-9.211394806E0,1.400896777E1
1.608767200E1,9.350156250E0,5.191055145E0,-8.068222046E0,1.339659219E1
1.609768900E1,8.423583069E0,4.616549835E0,-6.343807983E0,1.151143709E1
1.610770500E1,6.776558075E0,4.238735504E0,-5.144501953E0,9.505499375E0
1.611772200E1,5.545817413E0,4.054169312E0,-4.683460693E0,8.314275895E0
1.612773900E1,5.291645966E0,4.092489624E0,-4.625830536E0,8.133160302E0
1.613775500E1,5.867348785E0,4.240681458E0,-5.103337555E0,8.857381960E0
1.614777200E1,6.819369049E0,4.445455627E0,-5.910608826E0,1.005987906E1
1.615778900E1,7.396269379E0,4.775519257E0,-6.728058929E0,1.108048563E1
1.616780600E1,7.131919098E0,5.102439423E0,-7.231462097E0,1.136631876E1
1.617782200E1,6.315367126E0,5.253175964E0,-7.184010773E0,1.091282413E1
1.618783900E1,5.460943909E0,5.156327362E0,-6.821165314E0,1.014583247E1
1.619785600E1,4.740043030E0,4.973258057E0,-6.564898224E0,9.502588716E0
1.620787200E1,4.071533203E0,4.785099335E0,-6.389762421E0,8.961228825E0
1.621788900E1,3.735182648E0,4.643643494E0,-6.553821259E0,8.858193235E0
1.622790600E1,4.095633087E0,4.557871857E0,-7.153623962E0,9.419275027E0
1.623792300E1,4.933291168E0,4.500690765E0,-7.664810944E0,1.016577129E1
1.624793900E1,5.612728271E0,4.507426758E0,-7.624993744E0,1.048618826E1
1.625795600E1,5.861810303E0,4.574786682E0,-7.149881744E0,1.031553693E1
1.626797300E1,5.891748047E0,4.626129913E0,-6.666686554E0,1.002788525E1
1.627798900E1,5.855523376E0,4.653373260E0,-6.523135071E0,9.924330097E0
1.628800600E1,5.793103180E0,4.700375519E0,-6.487958221E0,9.886717168E0
1.629802300E1,5.644761658E0,4.743036804E0,-6.224057007E0,9.648762507E0
1.630804000E1,5.516328735E0,4.734055481E0,-5.787714386E0,9.291867510E0
1.631805600E1,5.514532471E0,4.675227814E0,-5.652246094E0,9.176911756E0
1.632807300E1,5.661526794E0,4.710853729E0,-6.040688324E0,9.525489170E0
1.633809000E1,6.111640778E0,4.854554901E0,-6.752458191E0,1.032058854E1
1.634810600E1,6.593039703E0,4.946912842E0,-6.884932709E0,1.073975873E1
1.635812300E1,6.722819824E0,4.825964355E0,-5.966592407E0,1.020227736E1
1.636814000E1,6.898853760E0,4.617897034E0,-5.651497650E0,1.004283734E1
1.637815700E1,7.516768799E0,4.561314697E0,-6.282285919E0,1.080622604E1
1.638817300E1,8.377329254E0,4.602329407E0,-6.884483643E0,1.177952446E1
1.639819000E1,8.644673309E0,4.812192993E0,-6.685098267E0,1.194060789E1
1.640820700E1,7.518864441E0,5.048551483E0,-5.785918121E0,1.074700158E1
1.641822300E1,5.863606567E0,5.137017517E0,-5.113666077E0,9.323111696E0
1.642824000E1,4.813240814E0,5.171894989E0,-4.362079010E0,8.303223362E0
1.643825700E1,4.611610107E0,5.091661835E0,-4.521647186E0,8.224187577E0
1.644827400E1,5.072052612E0,4.895719299E0,-5.810167694E0,9.135197523E0
1.645829000E1,5.930367737E0,4.703518982E0,-7.222780151E0,1.046235659E1
1.646830700E1,6.938072205E0,4.572691040E0,-8.024812317E0,1.155179475E1
1.647832400E1,7.612868958E0,4.544848938E0,-8.895551605E0,1.255954872E1
1.648834000E1,7.094796295E0,4.412224731E0,-8.937165070E0,1.223424624E1
1.649835700E1,5.507048035E0,4.079167328E0,-6.624025269E0,9.531258831E0
1.650837400E1,4.029320984E0,3.685785370E0,-3.719914398E0,6.607435547E0
1.651839100E1,3.745810547E0,3.488795013E0,-3.100203094E0,5.984483814E0
1.652840700E1,5.026397552E0,3.596421204E0,-4.059258728E0,7.394355905E0
1.653842400E1,7.022197266E0,3.949087830E0,-4.620741119E0,9.287507611E0
1.654844100E1,8.576115875E0,4.319717102E0,-4.635260925E0,1.066280278E1
1.655845700E1,8.884175262E0,4.511917419E0,-4.615052948E0,1.098110571E1
1.656847400E1,8.256530457E0,4.545747070E0,-4.360731812E0,1.038508996E1
1.657849100E1,7.567213898E0,4.570296021E0,-4.080813904E0,9.736702420E0
1.658850700E1,7.257208557E0,4.593497772E0,-3.971241760E0,9.462455228E0
1.659852400E1,7.203919373E0,4.537963257E0,-3.886967010E0,9.359384456E0
1.660854100E1,7.365433502E0,4.473297729E0,-3.763922882E0,9.403569467E0
1.661855800E1,7.491621094E0,4.374952240E0,-3.854783936E0,9.493363624E0
1.662857400E1,7.358098755E0,4.238286438E0,-4.082610168E0,9.421910369E0
1.663859075E1,6.966363373E0,4.156257019E0,-4.273463287E0,9.168815601E0
1.664860775E1,6.370003510E0,4.192332001E0,-4.406536560E0,8.807392166E0
1.665862375E1,5.756878510E0,4.345313873E0,-5.010979614E0,8.782557687E0
1.666864075E1,5.308261414E0,4.617148590E0,-5.742358704E0,9.081320599E0
1.667865775E1,5.006938019E0,4.941224670E0,-6.370302887E0,9.490304971E0
1.668867475E1,4.976850586E0,5.200036469E0,-6.525081024E0,9.715251072E0
1.669869075E1,5.172493744E0,5.285808105E0,-6.435866547E0,9.803817474E0
1.670870775E1,5.655539246E0,5.215903473E0,-6.736441498E0,1.022596779E1
1.671872475E1,6.481521606E0,4.948110352E0,-7.120393066E0,1.082561388E1
1.672874075E1,7.385641479E0,4.644391937E0,-7.538773041E0,1.153044559E1
1.673875775E1,7.990234222E0,4.409979401E0,-7.584877167E0,1.186684975E1
1.674877475E1,7.874824219E0,4.393962708E0,-7.179220734E0,1.152653352E1
1.675879175E1,7.349566498E0,4.577032013E0,-6.345005493E0,1.073426497E1
1.676880775E1,7.479645996E0,4.735552368E0,-5.331762543E0,1.033432399E1
1.677882475E1,8.294102325E0,4.684957581E0,-5.067262573E0,1.078972247E1
1.678884175E1,8.606802063E0,4.579277344E0,-5.455255737E0,1.117168912E1
1.679885775E1,7.365882568E0,4.614154816E0,-5.537285156E0,1.030573518E1
1.680887475E1,5.194497986E0,4.781506805E0,-5.035827942E0,8.672092003E0
1.681889175E1,3.794309692E0,4.905898132E0,-4.985382843E0,7.957302597E0
1.682890875E1,3.918701019E0,4.927153931E0,-6.163433075E0,8.810276432E0
1.683892475E1,5.034031677E0,4.851112061E0,-7.669002228E0,1.037730015E1
1.684894175E1,5.884562988E0,4.790188751E0,-8.494834900E0,1.139018041E1
1.685895875E1,5.760021973E0,4.781506805E0,-8.359815674E0,1.122172797E1
1.686897475E1,4.951852570E0,4.788691864E0,-7.554340668E0,1.022352564E1
1.687899175E1,4.262835388E0,4.839885406E0,-6.919810181E0,9.459388417E0
1.688900875E1,4.141288147E0,4.934338989E0,-6.873256989E0,9.420171464E0
